PE UV                   SPECTRUM    ASCII       PEDS        1.5         
  -1
BG-40A.SP
96/07/31
14:22:25.00
96/07/31
14:22:25.00
FINN POULSEN
BG-40 SCHOTT FARVEGLAS TYKKELSE 1MM. MRK.A
350.000000
1









4444

SCAN
1
1


0.0

2.00
MANUAL



UV/VIS




































#HDR
-1
-1
#GR
NM
%T
0.00002384185791015625
0.0
1100.000000
2.500000
301
8
90.748328
0.161232
#DATA
1100.000000	1.724917  
1097.500000	1.678747  
1095.000000	1.626800  
1092.500000	1.566588  
1090.000000	1.521757  
1087.500000	1.490175  
1085.000000	1.442001  
1082.500000	1.388682  
1080.000000	1.358201  
1077.500000	1.319742  
1075.000000	1.275945  
1072.500000	1.225006  
1070.000000	1.190875  
1067.500000	1.166016  
1065.000000	1.126565  
1062.500000	1.080795  
1060.000000	1.050776  
1057.500000	1.022170  
1055.000000	0.995501  
1052.500000	0.960468  
1050.000000	0.925705  
1047.500000	0.904558  
1045.000000	0.876243  
1042.500000	0.846990  
1040.000000	0.818477  
1037.500000	0.786252  
1035.000000	0.762370  
1032.500000	0.740615  
1030.000000	0.720484  
1027.500000	0.699677  
1025.000000	0.682402  
1022.500000	0.661927  
1020.000000	0.640251  
1017.500000	0.623153  
1015.000000	0.604219  
1012.500000	0.586172  
1010.000000	0.567303  
1007.500000	0.550006  
1005.000000	0.533023  
1002.500000	0.516002  
1000.000000	0.499814  
997.500000	 0.483463  
995.000000	 0.470133  
992.500000	 0.457025  
990.000000	 0.442421  
987.500000	 0.431159  
985.000000	 0.415497  
982.500000	 0.404178  
980.000000	 0.393859  
977.500000	 0.380166  
975.000000	 0.367165  
972.500000	 0.353817  
970.000000	 0.346618  
967.500000	 0.339069  
965.000000	 0.331494  
962.500000	 0.318989  
960.000000	 0.308100  
957.500000	 0.298152  
955.000000	 0.291977  
952.500000	 0.285604  
950.000000	 0.274411  
947.500000	 0.265758  
945.000000	 0.261881  
942.500000	 0.258012  
940.000000	 0.250260  
937.500000	 0.239475  
935.000000	 0.241759  
932.500000	 0.238922  
930.000000	 0.226751  
927.500000	 0.226898  
925.000000	 0.222921  
922.500000	 0.219769  
920.000000	 0.212723  
917.500000	 0.205628  
915.000000	 0.210323  
912.500000	 0.205419  
910.000000	 0.208232  
907.500000	 0.201975  
905.000000	 0.198225  
902.500000	 0.204366  
900.000000	 0.198395  
897.500000	 0.188316  
895.000000	 0.176920  
892.500000	 0.167091  
890.000000	 0.186651  
887.500000	 0.189198  
885.000000	 0.180735  
882.500000	 0.170084  
880.000000	 0.161232  
877.500000	 0.167023  
875.000000	 0.169669  
872.500000	 0.197680  
870.000000	 0.197571  
867.500000	 0.183350  
865.000000	 0.174525  
862.500000	 0.174351  
860.000000	 0.198334  
857.500000	 0.182744  
855.000000	 0.183722  
852.500000	 0.187672  
850.000000	 0.198888  
847.500000	 0.201761  
845.000000	 0.200151  
842.500000	 0.210081  
840.000000	 0.213947  
837.500000	 0.219975  
835.000000	 0.224992  
832.500000	 0.230480  
830.000000	 0.238633  
827.500000	 0.246543  
825.000000	 0.255085  
822.500000	 0.268477  
820.000000	 0.279381  
817.500000	 0.292132  
815.000000	 0.305578  
812.500000	 0.322576  
810.000000	 0.340717  
807.500000	 0.359903  
805.000000	 0.378357  
802.500000	 0.400284  
800.000000	 0.424998  
797.500000	 0.452087  
795.000000	 0.480856  
792.500000	 0.513136  
790.000000	 0.544846  
787.500000	 0.591286  
785.000000	 0.634132  
782.500000	 0.682560  
780.000000	 0.729531  
777.500000	 0.783201  
775.000000	 0.847190  
772.500000	 0.908871  
770.000000	 0.980921  
767.500000	 1.070134  
765.000000	 1.165129  
762.500000	 1.265462  
760.000000	 1.366453  
757.500000	 1.483173  
755.000000	 1.617815  
752.500000	 1.769620  
750.000000	 1.924154  
747.500000	 2.100606  
745.000000	 2.288677  
742.500000	 2.493584  
740.000000	 2.724551  
737.500000	 2.967482  
735.000000	 3.247069  
732.500000	 3.553666  
730.000000	 3.876573  
727.500000	 4.222613  
725.000000	 4.612234  
722.500000	 5.032721  
720.000000	 5.490063  
717.500000	 5.973991  
715.000000	 6.501084  
712.500000	 7.065550  
710.000000	 7.679947  
707.500000	 8.337042  
705.000000	 9.050550  
702.500000	 9.820756  
700.000000	 10.621106 
697.500000	 11.499772 
695.000000	 12.407414 
692.500000	 13.357085 
690.000000	 14.395839 
687.500000	 15.484628 
685.000000	 16.629926 
682.500000	 17.854133 
680.000000	 19.107921 
677.500000	 20.425154 
675.000000	 21.798640 
672.500000	 23.212507 
670.000000	 24.691528 
667.500000	 26.193688 
665.000000	 27.789723 
662.500000	 29.411557 
660.000000	 31.080722 
657.500000	 32.770843 
655.000000	 34.475027 
652.500000	 36.272873 
650.000000	 38.129930 
647.500000	 40.004136 
645.000000	 41.835069 
642.500000	 43.671625 
640.000000	 45.513695 
637.500000	 47.363962 
635.000000	 49.197938 
632.500000	 51.090362 
630.000000	 52.940091 
627.500000	 54.692085 
625.000000	 56.498246 
622.500000	 58.294648 
620.000000	 60.000869 
617.500000	 61.779046 
615.000000	 63.463907 
612.500000	 65.058098 
610.000000	 66.555530 
607.500000	 68.111901 
605.000000	 69.613789 
602.500000	 71.078399 
600.000000	 72.446031 
597.500000	 73.817271 
595.000000	 74.927795 
592.500000	 76.096261 
590.000000	 77.182551 
587.500000	 78.279682 
585.000000	 79.387120 
582.500000	 80.324899 
580.000000	 81.201224 
577.500000	 82.137484 
575.000000	 82.941940 
572.500000	 83.647352 
570.000000	 84.361352 
567.500000	 85.046434 
565.000000	 85.696817 
562.500000	 86.147660 
560.000000	 86.654331 
557.500000	 87.147909 
555.000000	 87.544710 
552.500000	 87.910988 
550.000000	 88.295762 
547.500000	 88.575817 
545.000000	 88.799829 
542.500000	 89.097324 
540.000000	 89.322369 
537.500000	 89.470601 
535.000000	 89.721408 
532.500000	 89.878715 
530.000000	 89.990843 
527.500000	 90.110145 
525.000000	 90.229886 
522.500000	 90.286143 
520.000000	 90.366896 
517.500000	 90.483643 
515.000000	 90.561283 
512.500000	 90.538802 
510.000000	 90.563384 
507.500000	 90.596953 
505.000000	 90.673561 
502.500000	 90.706704 
500.000000	 90.709999 
497.500000	 90.748328 
495.000000	 90.711494 
492.500000	 90.717019 
490.000000	 90.724896 
487.500000	 90.682401 
485.000000	 90.628051 
482.500000	 90.611326 
480.000000	 90.634666 
477.500000	 90.621699 
475.000000	 90.588050 
472.500000	 90.516737 
470.000000	 90.471948 
467.500000	 90.472568 
465.000000	 90.501790 
462.500000	 90.453014 
460.000000	 90.396539 
457.500000	 90.379778 
455.000000	 90.349602 
452.500000	 90.320397 
450.000000	 90.246399 
447.500000	 90.162288 
445.000000	 90.137463 
442.500000	 90.065931 
440.000000	 90.005157 
437.500000	 89.943962 
435.000000	 89.915683 
432.500000	 89.932612 
430.000000	 89.835759 
427.500000	 89.703386 
425.000000	 89.659906 
422.500000	 89.620077 
420.000000	 89.531774 
417.500000	 89.468556 
415.000000	 89.472679 
412.500000	 89.380440 
410.000000	 89.093855 
407.500000	 89.152497 
405.000000	 89.109255 
402.500000	 88.998962 
400.000000	 88.834600 
397.500000	 88.711782 
395.000000	 88.672014 
392.500000	 88.448002 
390.000000	 88.338671 
387.500000	 88.177964 
385.000000	 87.997129 
382.500000	 87.929275 
380.000000	 87.828684 
377.500000	 87.554277 
375.000000	 87.177878 
372.500000	 86.925949 
370.000000	 86.773116 
367.500000	 86.484498 
365.000000	 86.041865 
362.500000	 85.699777 
360.000000	 85.175016 
357.500000	 84.721076 
355.000000	 84.054311 
352.500000	 83.329601 
350.000000	 82.267087 

