PE UV                   SPECTRUM    ASCII       PEDS        1.5         
  -1
BG-40G.SP
96/07/31
14:49:36.00
96/07/31
14:49:36.00
FINN POULSEN
BG-40 SCHOTT FARVEGLAS TYKKELSE 1MM. MRKG.
350.000000
1









4444

SCAN
1
1


0.0

2.00
MANUAL



UV/VIS




































#HDR
-1
-1
#GR
NM
%T
0.00002384185791015625
0.0
1100.000000
2.500000
301
8
90.859745
0.177059
#DATA
1100.000000	1.809551  
1097.500000	1.759379  
1095.000000	1.708577  
1092.500000	1.659651  
1090.000000	1.625007  
1087.500000	1.569410  
1085.000000	1.522035  
1082.500000	1.465442  
1080.000000	1.432345  
1077.500000	1.380670  
1075.000000	1.348959  
1072.500000	1.296978  
1070.000000	1.257994  
1067.500000	1.231932  
1065.000000	1.192492  
1062.500000	1.142067  
1060.000000	1.107047  
1057.500000	1.078708  
1055.000000	1.054303  
1052.500000	1.016838  
1050.000000	0.978190  
1047.500000	0.951033  
1045.000000	0.930156  
1042.500000	0.899886  
1040.000000	0.870134  
1037.500000	0.837221  
1035.000000	0.811974  
1032.500000	0.788955  
1030.000000	0.766161  
1027.500000	0.743143  
1025.000000	0.723624  
1022.500000	0.702926  
1020.000000	0.681612  
1017.500000	0.661937  
1015.000000	0.640187  
1012.500000	0.622006  
1010.000000	0.602994  
1007.500000	0.586637  
1005.000000	0.570956  
1002.500000	0.552447  
1000.000000	0.533523  
997.500000	 0.516545  
995.000000	 0.502397  
992.500000	 0.487138  
990.000000	 0.472009  
987.500000	 0.459138  
985.000000	 0.443091  
982.500000	 0.430812  
980.000000	 0.419636  
977.500000	 0.405940  
975.000000	 0.394116  
972.500000	 0.382220  
970.000000	 0.373814  
967.500000	 0.362118  
965.000000	 0.352054  
962.500000	 0.340728  
960.000000	 0.330038  
957.500000	 0.319437  
955.000000	 0.310573  
952.500000	 0.303505  
950.000000	 0.292569  
947.500000	 0.285165  
945.000000	 0.283526  
942.500000	 0.277553  
940.000000	 0.267167  
937.500000	 0.258082  
935.000000	 0.257222  
932.500000	 0.252859  
930.000000	 0.249919  
927.500000	 0.248410  
925.000000	 0.237558  
922.500000	 0.243942  
920.000000	 0.232789  
917.500000	 0.223697  
915.000000	 0.230315  
912.500000	 0.228016  
910.000000	 0.228068  
907.500000	 0.216359  
905.000000	 0.201426  
902.500000	 0.200025  
900.000000	 0.202812  
897.500000	 0.192805  
895.000000	 0.197971  
892.500000	 0.199752  
890.000000	 0.201635  
887.500000	 0.180781  
885.000000	 0.187475  
882.500000	 0.185918  
880.000000	 0.193834  
877.500000	 0.198130  
875.000000	 0.193606  
872.500000	 0.181209  
870.000000	 0.177059  
867.500000	 0.196974  
865.000000	 0.220066  
862.500000	 0.221029  
860.000000	 0.204055  
857.500000	 0.188486  
855.000000	 0.196610  
852.500000	 0.206948  
850.000000	 0.210788  
847.500000	 0.212236  
845.000000	 0.211539  
842.500000	 0.215260  
840.000000	 0.223339  
837.500000	 0.230308  
835.000000	 0.242896  
832.500000	 0.253262  
830.000000	 0.255499  
827.500000	 0.267788  
825.000000	 0.279010  
822.500000	 0.288778  
820.000000	 0.303060  
817.500000	 0.314620  
815.000000	 0.327143  
812.500000	 0.345307  
810.000000	 0.361986  
807.500000	 0.382897  
805.000000	 0.405611  
802.500000	 0.427550  
800.000000	 0.452016  
797.500000	 0.481930  
795.000000	 0.513817  
792.500000	 0.545231  
790.000000	 0.581148  
787.500000	 0.624870  
785.000000	 0.670263  
782.500000	 0.717424  
780.000000	 0.768225  
777.500000	 0.825460  
775.000000	 0.888018  
772.500000	 0.962960  
770.000000	 1.042211  
767.500000	 1.125764  
765.000000	 1.221488  
762.500000	 1.324754  
760.000000	 1.437323  
757.500000	 1.560376  
755.000000	 1.695796  
752.500000	 1.848507  
750.000000	 2.005269  
747.500000	 2.186723  
745.000000	 2.384778  
742.500000	 2.599362  
740.000000	 2.837633  
737.500000	 3.096860  
735.000000	 3.374817  
732.500000	 3.674866  
730.000000	 4.015629  
727.500000	 4.381182  
725.000000	 4.775123  
722.500000	 5.202881  
720.000000	 5.681374  
717.500000	 6.176257  
715.000000	 6.715662  
712.500000	 7.287290  
710.000000	 7.915962  
707.500000	 8.556930  
705.000000	 9.287047  
702.500000	 10.068535 
700.000000	 10.892929 
697.500000	 11.783029 
695.000000	 12.708225 
692.500000	 13.674779 
690.000000	 14.710103 
687.500000	 15.807582 
685.000000	 16.958522 
682.500000	 18.188332 
680.000000	 19.446199 
677.500000	 20.758464 
675.000000	 22.138776 
672.500000	 23.548588 
670.000000	 25.041573 
667.500000	 26.573508 
665.000000	 28.150651 
662.500000	 29.773024 
660.000000	 31.469799 
657.500000	 33.188801 
655.000000	 34.911064 
652.500000	 36.685291 
650.000000	 38.489863 
647.500000	 40.358950 
645.000000	 42.165244 
642.500000	 44.015817 
640.000000	 45.837744 
637.500000	 47.698494 
635.000000	 49.548847 
632.500000	 51.420710 
630.000000	 53.278869 
627.500000	 55.041944 
625.000000	 56.823335 
622.500000	 58.620346 
620.000000	 60.315209 
617.500000	 62.015797 
615.000000	 63.726700 
612.500000	 65.293673 
610.000000	 66.756927 
607.500000	 68.314515 
605.000000	 69.836933 
602.500000	 71.259613 
600.000000	 72.576718 
597.500000	 73.957716 
595.000000	 75.118752 
592.500000	 76.268442 
590.000000	 77.354451 
587.500000	 78.399720 
585.000000	 79.532816 
582.500000	 80.425944 
580.000000	 81.251231 
577.500000	 82.188205 
575.000000	 83.008125 
572.500000	 83.764986 
570.000000	 84.479735 
567.500000	 85.052044 
565.000000	 85.740643 
562.500000	 86.256720 
560.000000	 86.692916 
557.500000	 87.169615 
555.000000	 87.574347 
552.500000	 88.008351 
550.000000	 88.347309 
547.500000	 88.642908 
545.000000	 88.884316 
542.500000	 89.201688 
540.000000	 89.447028 
537.500000	 89.607831 
535.000000	 89.788428 
532.500000	 89.907248 
530.000000	 90.066832 
527.500000	 90.193185 
525.000000	 90.288401 
522.500000	 90.343949 
520.000000	 90.464991 
517.500000	 90.585877 
515.000000	 90.645191 
512.500000	 90.692868 
510.000000	 90.729335 
507.500000	 90.767597 
505.000000	 90.794772 
502.500000	 90.779000 
500.000000	 90.831570 
497.500000	 90.859745 
495.000000	 90.796808 
492.500000	 90.803509 
490.000000	 90.740781 
487.500000	 90.677047 
485.000000	 90.719109 
482.500000	 90.738239 
480.000000	 90.691100 
477.500000	 90.696723 
475.000000	 90.601934 
472.500000	 90.579240 
470.000000	 90.597439 
467.500000	 90.600272 
465.000000	 90.599373 
462.500000	 90.490372 
460.000000	 90.473514 
457.500000	 90.405728 
455.000000	 90.376606 
452.500000	 90.315679 
450.000000	 90.219517 
447.500000	 90.205090 
445.000000	 90.162838 
442.500000	 90.070678 
440.000000	 90.068127 
437.500000	 90.036632 
435.000000	 89.930979 
432.500000	 89.951685 
430.000000	 89.896818 
427.500000	 89.783328 
425.000000	 89.746879 
422.500000	 89.636468 
420.000000	 89.449602 
417.500000	 89.431922 
415.000000	 89.493929 
412.500000	 89.497481 
410.000000	 89.216076 
407.500000	 89.162402 
405.000000	 89.103850 
402.500000	 88.971379 
400.000000	 88.886180 
397.500000	 88.811782 
395.000000	 88.747395 
392.500000	 88.562358 
390.000000	 88.451379 
387.500000	 88.256378 
385.000000	 88.010841 
382.500000	 87.977480 
380.000000	 87.819405 
377.500000	 87.502851 
375.000000	 87.226494 
372.500000	 87.082098 
370.000000	 86.824964 
367.500000	 86.375267 
365.000000	 86.053926 
362.500000	 85.653633 
360.000000	 85.133764 
357.500000	 84.746315 
355.000000	 84.094552 
352.500000	 83.315489 
350.000000	 82.427688 

