PE UV                   SPECTRUM    ASCII       PEDS        1.5         
  -1
X151424J.SP
96/07/30
15:01:27.00
96/07/30
15:01:27.00
FINN POULSEN
X-FILTER NO.1540X24. PRODUKTIONSUGE 23/96. MRK.J.
350.000000
1









4444

SCAN
1
1


0.0

2.00
MANUAL



UV/VIS




































#HDR
-1
-1
#GR
NM
%T
0.00002384185791015625
0.0
1100.000000
2.500000
301
8
92.214790
-0.044233
#DATA
1100.000000	90.358081 
1097.500000	90.286473 
1095.000000	90.290480 
1092.500000	88.581157 
1090.000000	88.529869 
1087.500000	89.388189 
1085.000000	89.251331 
1082.500000	90.522169 
1080.000000	90.369745 
1077.500000	89.366119 
1075.000000	90.350181 
1072.500000	90.268163 
1070.000000	88.632575 
1067.500000	88.587411 
1065.000000	90.720886 
1062.500000	90.880096 
1060.000000	90.123456 
1057.500000	88.779224 
1055.000000	89.327528 
1052.500000	91.227346 
1050.000000	91.317250 
1047.500000	90.478394 
1045.000000	89.627759 
1042.500000	90.277439 
1040.000000	91.500355 
1037.500000	91.121914 
1035.000000	90.317554 
1032.500000	90.368941 
1030.000000	90.865463 
1027.500000	91.928701 
1025.000000	91.384309 
1022.500000	90.199267 
1020.000000	90.628684 
1017.500000	90.945074 
1015.000000	90.658672 
1012.500000	91.415757 
1010.000000	91.110624 
1007.500000	89.743797 
1005.000000	88.563128 
1002.500000	89.087569 
1000.000000	89.211989 
997.500000	 88.271521 
995.000000	 88.738086 
992.500000	 88.728010 
990.000000	 88.736367 
987.500000	 89.383775 
985.000000	 88.169575 
982.500000	 87.219338 
980.000000	 87.542782 
977.500000	 88.546897 
975.000000	 89.009120 
972.500000	 89.327208 
970.000000	 88.502789 
967.500000	 87.777296 
965.000000	 88.615684 
962.500000	 89.987836 
960.000000	 90.389392 
957.500000	 90.600974 
955.000000	 90.681904 
952.500000	 90.774818 
950.000000	 91.436352 
947.500000	 91.882416 
945.000000	 91.753574 
942.500000	 91.074219 
940.000000	 91.876067 
937.500000	 92.214790 
935.000000	 92.000325 
932.500000	 91.833631 
930.000000	 91.296226 
927.500000	 90.598936 
925.000000	 89.658433 
922.500000	 88.787247 
920.000000	 88.461017 
917.500000	 87.970231 
915.000000	 86.984598 
912.500000	 85.880727 
910.000000	 85.236231 
907.500000	 84.801887 
905.000000	 83.925284 
902.500000	 84.234234 
900.000000	 83.672081 
897.500000	 83.616081 
895.000000	 83.326538 
892.500000	 83.615512 
890.000000	 84.056675 
887.500000	 84.577006 
885.000000	 85.277059 
882.500000	 85.619570 
880.000000	 86.165857 
877.500000	 86.143730 
875.000000	 86.529939 
872.500000	 86.171820 
870.000000	 85.235224 
867.500000	 82.793326 
865.000000	 80.071818 
862.500000	 75.464514 
860.000000	 70.552147 
857.500000	 64.084467 
855.000000	 57.491367 
852.500000	 50.700554 
850.000000	 44.209937 
847.500000	 38.305502 
845.000000	 32.903352 
842.500000	 28.101770 
840.000000	 23.858694 
837.500000	 20.275877 
835.000000	 17.250764 
832.500000	 14.754651 
830.000000	 12.563958 
827.500000	 10.844354 
825.000000	 9.364032  
822.500000	 8.019013  
820.000000	 6.992908  
817.500000	 6.115269  
815.000000	 5.375133  
812.500000	 4.725163  
810.000000	 4.156114  
807.500000	 3.709536  
805.000000	 3.301993  
802.500000	 2.986292  
800.000000	 2.738376  
797.500000	 2.530860  
795.000000	 2.293965  
792.500000	 2.085561  
790.000000	 1.972219  
787.500000	 1.860045  
785.000000	 1.742464  
782.500000	 1.620539  
780.000000	 1.557878  
777.500000	 1.496659  
775.000000	 1.429901  
772.500000	 1.392804  
770.000000	 1.350589  
767.500000	 1.337773  
765.000000	 1.303280  
762.500000	 1.271855  
760.000000	 1.292872  
757.500000	 1.349291  
755.000000	 1.315306  
752.500000	 1.317757  
750.000000	 1.376392  
747.500000	 1.514766  
745.000000	 1.556189  
742.500000	 1.597082  
740.000000	 1.691182  
737.500000	 1.816384  
735.000000	 1.994970  
732.500000	 2.130846  
730.000000	 2.283647  
727.500000	 2.570621  
725.000000	 2.838902  
722.500000	 3.108134  
720.000000	 3.478776  
717.500000	 3.896580  
715.000000	 4.384352  
712.500000	 4.900268  
710.000000	 5.507803  
707.500000	 6.223843  
705.000000	 6.920836  
702.500000	 7.719288  
700.000000	 8.577967  
697.500000	 9.574017  
695.000000	 10.580185 
692.500000	 11.632248 
690.000000	 12.854677 
687.500000	 14.236405 
685.000000	 15.817626 
682.500000	 17.692852 
680.000000	 19.819921 
677.500000	 22.172804 
675.000000	 24.963176 
672.500000	 28.123230 
670.000000	 31.683000 
667.500000	 35.542782 
665.000000	 39.611529 
662.500000	 43.996149 
660.000000	 48.166931 
657.500000	 52.231231 
655.000000	 55.871018 
652.500000	 59.109575 
650.000000	 62.064761 
647.500000	 64.391876 
645.000000	 66.440726 
642.500000	 68.246861 
640.000000	 69.865653 
637.500000	 71.409936 
635.000000	 72.771631 
632.500000	 74.142480 
630.000000	 75.498284 
627.500000	 76.820835 
625.000000	 78.235610 
622.500000	 79.682845 
620.000000	 80.952515 
617.500000	 81.854792 
615.000000	 82.215164 
612.500000	 81.895256 
610.000000	 80.754182 
607.500000	 78.896739 
605.000000	 76.291672 
602.500000	 73.241034 
600.000000	 70.213671 
597.500000	 67.267668 
595.000000	 64.580555 
592.500000	 62.532974 
590.000000	 60.971110 
587.500000	 59.729714 
585.000000	 58.557432 
582.500000	 57.309559 
580.000000	 55.780593 
577.500000	 53.787771 
575.000000	 50.957604 
572.500000	 47.375749 
570.000000	 43.367564 
567.500000	 39.105445 
565.000000	 34.813928 
562.500000	 30.784782 
560.000000	 27.326856 
557.500000	 24.504802 
555.000000	 22.210808 
552.500000	 20.395937 
550.000000	 18.767666 
547.500000	 17.046071 
545.000000	 14.876174 
542.500000	 12.332409 
540.000000	 9.543022  
537.500000	 6.860022  
535.000000	 4.811853  
532.500000	 3.395035  
530.000000	 2.442594  
527.500000	 1.790325  
525.000000	 1.375949  
522.500000	 1.149161  
520.000000	 0.997884  
517.500000	 0.871695  
515.000000	 0.833380  
512.500000	 0.858332  
510.000000	 0.918148  
507.500000	 1.021788  
505.000000	 1.263399  
502.500000	 1.678435  
500.000000	 2.337817  
497.500000	 3.548492  
495.000000	 5.709513  
492.500000	 9.022017  
490.000000	 12.589967 
487.500000	 14.894503 
485.000000	 15.457378 
482.500000	 15.451026 
480.000000	 15.823967 
477.500000	 16.636896 
475.000000	 17.813380 
472.500000	 19.181443 
470.000000	 20.934371 
467.500000	 23.589430 
465.000000	 27.762892 
462.500000	 33.840607 
460.000000	 40.705901 
457.500000	 45.940767 
455.000000	 47.906060 
452.500000	 47.746165 
450.000000	 47.760330 
447.500000	 48.683337 
445.000000	 49.900133 
442.500000	 49.516747 
440.000000	 45.534622 
437.500000	 38.367664 
435.000000	 30.671930 
432.500000	 25.020848 
430.000000	 22.129326 
427.500000	 21.200088 
425.000000	 21.103310 
422.500000	 21.318937 
420.000000	 21.579020 
417.500000	 19.375242 
415.000000	 12.418191 
412.500000	 5.723868  
410.000000	 2.852702  
407.500000	 1.964811  
405.000000	 2.275246  
402.500000	 5.515388  
400.000000	 12.541537 
397.500000	 13.288475 
395.000000	 5.769390  
392.500000	 4.806415  
390.000000	 7.904122  
387.500000	 10.688100 
385.000000	 7.009733  
382.500000	 3.548039  
380.000000	 2.643500  
377.500000	 0.990973  
375.000000	 0.068982  
372.500000	 0.011054  
370.000000	 0.011050  
367.500000	 -0.033168 
365.000000	 -0.044233 
362.500000	 0.019378  
360.000000	 0.030420  
357.500000	 -0.008290 
355.000000	 0.008285  
352.500000	 -0.008284 
350.000000	 -0.005525 

