PE UV                   SPECTRUM    ASCII       PEDS        1.5         
  -1
X151424E.SP
96/07/30
14:35:04.00
96/07/30
14:35:04.00
FINN POULSEN
X-FILTER NO.1540X24. PRODUKTIONSUGE 23/96. MRK.E.
350.000000
1









4444

SCAN
1
1


0.0

2.00
MANUAL



UV/VIS




































#HDR
-1
-1
#GR
NM
%T
0.00002384185791015625
0.0
1100.000000
2.500000
301
8
92.517782
-0.033160
#DATA
1100.000000	90.902930 
1097.500000	90.693010 
1095.000000	89.340986 
1092.500000	89.117378 
1090.000000	90.530251 
1087.500000	90.485680 
1085.000000	88.869467 
1082.500000	90.349845 
1080.000000	90.255390 
1077.500000	88.915851 
1075.000000	90.035810 
1072.500000	89.611380 
1070.000000	87.930849 
1067.500000	88.344188 
1065.000000	90.273931 
1062.500000	90.882846 
1060.000000	89.458268 
1057.500000	87.978318 
1055.000000	88.402779 
1052.500000	90.135577 
1050.000000	90.358300 
1047.500000	89.966509 
1045.000000	88.902615 
1042.500000	89.524969 
1040.000000	90.729400 
1037.500000	90.437522 
1035.000000	89.594863 
1032.500000	90.309171 
1030.000000	91.583941 
1027.500000	91.220597 
1025.000000	90.197605 
1022.500000	90.887894 
1020.000000	92.076330 
1017.500000	91.132136 
1015.000000	90.464230 
1012.500000	91.511472 
1010.000000	91.491050 
1007.500000	90.094390 
1005.000000	88.733708 
1002.500000	89.430608 
1000.000000	89.816899 
997.500000	 89.695868 
995.000000	 90.067997 
992.500000	 89.198917 
990.000000	 89.077526 
987.500000	 89.601042 
985.000000	 87.961976 
982.500000	 86.937995 
980.000000	 87.113598 
977.500000	 88.204006 
975.000000	 88.847212 
972.500000	 89.054309 
970.000000	 87.665890 
967.500000	 86.492262 
965.000000	 86.961113 
962.500000	 88.322746 
960.000000	 89.104018 
957.500000	 89.393611 
955.000000	 89.622845 
952.500000	 89.504977 
950.000000	 89.983012 
947.500000	 90.736245 
945.000000	 90.181163 
942.500000	 89.815663 
940.000000	 90.900219 
937.500000	 91.767987 
935.000000	 92.333984 
932.500000	 92.517782 
930.000000	 91.908062 
927.500000	 91.468055 
925.000000	 90.493433 
922.500000	 90.075509 
920.000000	 89.997561 
917.500000	 89.551022 
915.000000	 88.770602 
912.500000	 87.953504 
910.000000	 87.022236 
907.500000	 86.212133 
905.000000	 84.956686 
902.500000	 84.903084 
900.000000	 83.759148 
897.500000	 83.043312 
895.000000	 82.399782 
892.500000	 81.930592 
890.000000	 81.726809 
887.500000	 82.188177 
885.000000	 81.710006 
882.500000	 81.506237 
880.000000	 81.668338 
877.500000	 81.711672 
875.000000	 82.314634 
872.500000	 83.103987 
870.000000	 83.257078 
867.500000	 83.433799 
865.000000	 83.508828 
862.500000	 82.178191 
860.000000	 80.238371 
857.500000	 77.874866 
855.000000	 74.197804 
852.500000	 69.265258 
850.000000	 63.720083 
847.500000	 57.533901 
845.000000	 51.239576 
842.500000	 44.980223 
840.000000	 39.092005 
837.500000	 33.615565 
835.000000	 28.704509 
832.500000	 24.475858 
830.000000	 20.801236 
827.500000	 17.838991 
825.000000	 15.181805 
822.500000	 12.879363 
820.000000	 11.081719 
817.500000	 9.627399  
815.000000	 8.386334  
812.500000	 7.214462  
810.000000	 6.266531  
807.500000	 5.481339  
805.000000	 4.810832  
802.500000	 4.233161  
800.000000	 3.872565  
797.500000	 3.449636  
795.000000	 3.070817  
792.500000	 2.777934  
790.000000	 2.544163  
787.500000	 2.378603  
785.000000	 2.125919  
782.500000	 1.998196  
780.000000	 1.893117  
777.500000	 1.755968  
775.000000	 1.675268  
772.500000	 1.545054  
770.000000	 1.545141  
767.500000	 1.501467  
765.000000	 1.368162  
762.500000	 1.331077  
760.000000	 1.360621  
757.500000	 1.397278  
755.000000	 1.329419  
752.500000	 1.295183  
750.000000	 1.339726  
747.500000	 1.356802  
745.000000	 1.378258  
742.500000	 1.376600  
740.000000	 1.448375  
737.500000	 1.579096  
735.000000	 1.619147  
732.500000	 1.695633  
730.000000	 1.825787  
727.500000	 2.025423  
725.000000	 2.175079  
722.500000	 2.308496  
720.000000	 2.597072  
717.500000	 2.868041  
715.000000	 3.162390  
712.500000	 3.533738  
710.000000	 3.955553  
707.500000	 4.555480  
705.000000	 5.127697  
702.500000	 5.770373  
700.000000	 6.574746  
697.500000	 7.462475  
695.000000	 8.397421  
692.500000	 9.388967  
690.000000	 10.469885 
687.500000	 11.659027 
685.000000	 12.933718 
682.500000	 14.448690 
680.000000	 16.116427 
677.500000	 17.858356 
675.000000	 19.819283 
672.500000	 22.066485 
670.000000	 24.667195 
667.500000	 27.515714 
665.000000	 30.638767 
662.500000	 34.202553 
660.000000	 37.953309 
657.500000	 41.772510 
655.000000	 45.588235 
652.500000	 49.304709 
650.000000	 52.937507 
647.500000	 55.998978 
645.000000	 58.825865 
642.500000	 61.437760 
640.000000	 63.692534 
637.500000	 65.826338 
635.000000	 67.730496 
632.500000	 69.600249 
630.000000	 71.392929 
627.500000	 73.017627 
625.000000	 74.684728 
622.500000	 76.429037 
620.000000	 77.995747 
617.500000	 79.583096 
615.000000	 80.947654 
612.500000	 82.031360 
610.000000	 82.741706 
607.500000	 82.897761 
605.000000	 82.176195 
602.500000	 80.710962 
600.000000	 78.686756 
597.500000	 76.004429 
595.000000	 72.892848 
592.500000	 70.049638 
590.000000	 67.415857 
587.500000	 65.041735 
585.000000	 63.049836 
582.500000	 61.483206 
580.000000	 60.084081 
577.500000	 58.637255 
575.000000	 56.927710 
572.500000	 54.772527 
570.000000	 52.262964 
567.500000	 49.024071 
565.000000	 45.235044 
562.500000	 41.203940 
560.000000	 37.212615 
557.500000	 33.493886 
555.000000	 30.251669 
552.500000	 27.533089 
550.000000	 25.311937 
547.500000	 23.352660 
545.000000	 21.565883 
542.500000	 19.593493 
540.000000	 16.882708 
537.500000	 13.533942 
535.000000	 10.145301 
532.500000	 7.188979  
530.000000	 4.922502  
527.500000	 3.325299  
525.000000	 2.359180  
522.500000	 1.791087  
520.000000	 1.355292  
517.500000	 1.102438  
515.000000	 0.921254  
512.500000	 0.852704  
510.000000	 0.812100  
507.500000	 0.740106  
505.000000	 0.834062  
502.500000	 0.961434  
500.000000	 1.125515  
497.500000	 1.472188  
495.000000	 2.037351  
492.500000	 3.166248  
490.000000	 5.132322  
487.500000	 8.528595  
485.000000	 13.023035 
482.500000	 16.782243 
480.000000	 18.264216 
477.500000	 18.068657 
475.000000	 17.771513 
472.500000	 17.740046 
470.000000	 17.775305 
467.500000	 18.033105 
465.000000	 18.840980 
462.500000	 20.845946 
460.000000	 24.629771 
457.500000	 30.590682 
455.000000	 38.202770 
452.500000	 45.046503 
450.000000	 48.415977 
447.500000	 48.450984 
445.000000	 47.553262 
442.500000	 47.264344 
440.000000	 47.438034 
437.500000	 46.607177 
435.000000	 43.093047 
432.500000	 36.918329 
430.000000	 30.376090 
427.500000	 25.839951 
425.000000	 24.166828 
422.500000	 24.952121 
420.000000	 27.045927 
417.500000	 28.508017 
415.000000	 25.418746 
412.500000	 15.874379 
410.000000	 6.976356  
407.500000	 3.102625  
405.000000	 1.926061  
402.500000	 1.903099  
400.000000	 3.874058  
397.500000	 9.115578  
395.000000	 10.896815 
392.500000	 4.939159  
390.000000	 3.751624  
387.500000	 6.037130  
385.000000	 8.243004  
382.500000	 5.559700  
380.000000	 2.626926  
377.500000	 1.617578  
375.000000	 0.560139  
372.500000	 0.138186  
370.000000	 0.016575  
367.500000	 -0.008292 
365.000000	 -0.008293 
362.500000	 -0.019378 
360.000000	 0.008296  
357.500000	 -0.033160 
355.000000	 0.005523  
352.500000	 0.019329  
350.000000	 -0.033151 

