PE UV                   SPECTRUM    ASCII       PEDS        1.5         
  -1
X151424H.SP
96/07/30
14:50:27.00
96/07/30
14:50:27.00
FINN POULSEN
X-FILTER NO.1540X24. PRODUKTIONSUGE 23/96. MRK.H.
350.000000
1









4444

SCAN
1
1


0.0

2.00
MANUAL



UV/VIS




































#HDR
-1
-1
#GR
NM
%T
0.00002384185791015625
0.0
1100.000000
2.500000
301
8
92.350260
-0.035951
#DATA
1100.000000	90.742999 
1097.500000	90.524974 
1095.000000	90.556017 
1092.500000	90.154968 
1090.000000	89.834347 
1087.500000	89.691228 
1085.000000	89.436884 
1082.500000	89.277606 
1080.000000	89.324221 
1077.500000	89.908058 
1075.000000	90.667286 
1072.500000	88.932795 
1070.000000	88.777759 
1067.500000	88.571196 
1065.000000	88.823384 
1062.500000	90.305463 
1060.000000	89.127042 
1057.500000	88.954507 
1055.000000	89.249114 
1052.500000	89.901823 
1050.000000	90.185195 
1047.500000	89.272197 
1045.000000	89.531073 
1042.500000	90.033834 
1040.000000	89.922904 
1037.500000	89.973113 
1035.000000	90.521734 
1032.500000	90.684090 
1030.000000	90.399276 
1027.500000	90.417537 
1025.000000	90.640605 
1022.500000	90.581537 
1020.000000	90.291448 
1017.500000	90.299842 
1015.000000	91.074563 
1012.500000	91.139552 
1010.000000	89.816081 
1007.500000	88.492448 
1005.000000	88.443188 
1002.500000	90.370590 
1000.000000	90.372982 
997.500000	 88.933503 
995.000000	 88.279308 
992.500000	 88.395128 
990.000000	 88.473110 
987.500000	 88.305586 
985.000000	 87.582288 
982.500000	 87.295820 
980.000000	 87.567229 
977.500000	 87.601922 
975.000000	 87.595121 
972.500000	 88.911105 
970.000000	 88.611126 
967.500000	 87.790823 
965.000000	 87.391681 
962.500000	 88.306527 
960.000000	 88.982501 
957.500000	 89.252842 
955.000000	 89.782244 
952.500000	 89.819747 
950.000000	 90.503410 
947.500000	 91.742179 
945.000000	 91.025158 
942.500000	 89.945022 
940.000000	 91.155024 
937.500000	 92.274364 
935.000000	 92.350260 
932.500000	 91.144051 
930.000000	 91.052574 
927.500000	 90.704202 
925.000000	 89.834080 
922.500000	 89.461149 
920.000000	 89.165605 
917.500000	 88.402096 
915.000000	 87.425020 
912.500000	 86.463272 
910.000000	 85.464578 
907.500000	 85.067664 
905.000000	 84.959393 
902.500000	 83.794703 
900.000000	 83.209533 
897.500000	 82.977852 
895.000000	 82.231281 
892.500000	 82.207788 
890.000000	 82.347204 
887.500000	 82.890455 
885.000000	 82.537780 
882.500000	 83.105566 
880.000000	 83.544338 
877.500000	 83.889820 
875.000000	 84.624945 
872.500000	 84.763369 
870.000000	 84.538163 
867.500000	 83.840150 
865.000000	 82.831146 
862.500000	 80.647237 
860.000000	 77.614118 
857.500000	 72.237159 
855.000000	 66.982959 
852.500000	 60.654037 
850.000000	 53.993002 
847.500000	 47.775411 
845.000000	 41.611170 
842.500000	 35.785015 
840.000000	 30.727573 
837.500000	 26.177526 
835.000000	 22.191980 
832.500000	 18.900005 
830.000000	 16.086589 
827.500000	 13.781484 
825.000000	 11.804015 
822.500000	 10.049784 
820.000000	 8.715105  
817.500000	 7.601170  
815.000000	 6.627455  
812.500000	 5.688218  
810.000000	 4.997467  
807.500000	 4.390134  
805.000000	 3.850917  
802.500000	 3.492921  
800.000000	 3.191489  
797.500000	 2.854968  
795.000000	 2.586692  
792.500000	 2.403602  
790.000000	 2.239878  
787.500000	 2.071414  
785.000000	 1.911636  
782.500000	 1.820641  
780.000000	 1.732540  
777.500000	 1.564305  
775.000000	 1.489127  
772.500000	 1.440735  
770.000000	 1.457734  
767.500000	 1.385752  
765.000000	 1.277892  
762.500000	 1.314156  
760.000000	 1.346506  
757.500000	 1.343645  
755.000000	 1.253210  
752.500000	 1.278252  
750.000000	 1.379213  
747.500000	 1.401935  
745.000000	 1.406501  
742.500000	 1.447267  
740.000000	 1.541545  
737.500000	 1.652542  
735.000000	 1.720873  
732.500000	 1.868023  
730.000000	 2.071674  
727.500000	 2.288135  
725.000000	 2.466032  
722.500000	 2.633437  
720.000000	 3.009664  
717.500000	 3.337100  
715.000000	 3.694170  
712.500000	 4.164662  
710.000000	 4.727437  
707.500000	 5.361384  
705.000000	 5.981842  
702.500000	 6.754730  
700.000000	 7.648405  
697.500000	 8.564886  
695.000000	 9.525559  
692.500000	 10.571428 
690.000000	 11.675012 
687.500000	 12.929327 
685.000000	 14.416709 
682.500000	 16.014154 
680.000000	 17.843592 
677.500000	 19.801699 
675.000000	 22.110808 
672.500000	 24.798957 
670.000000	 27.748824 
667.500000	 30.989863 
665.000000	 34.659380 
662.500000	 38.562813 
660.000000	 42.511899 
657.500000	 46.447607 
655.000000	 50.294684 
652.500000	 53.875782 
650.000000	 57.080072 
647.500000	 59.950079 
645.000000	 62.373794 
642.500000	 64.549035 
640.000000	 66.657218 
637.500000	 68.449410 
635.000000	 70.209929 
632.500000	 71.886969 
630.000000	 73.391738 
627.500000	 74.919231 
625.000000	 76.535267 
622.500000	 78.207710 
620.000000	 79.668320 
617.500000	 80.836642 
615.000000	 81.718936 
612.500000	 82.204326 
610.000000	 81.947831 
607.500000	 80.948327 
605.000000	 79.117605 
602.500000	 76.707898 
600.000000	 73.868505 
597.500000	 70.876515 
595.000000	 68.033135 
592.500000	 65.494256 
590.000000	 63.564901 
587.500000	 61.947078 
585.000000	 60.613374 
582.500000	 59.458845 
580.000000	 58.158163 
577.500000	 56.596264 
575.000000	 54.358945 
572.500000	 51.516012 
570.000000	 48.052797 
567.500000	 43.968019 
565.000000	 39.716978 
562.500000	 35.568654 
560.000000	 31.674311 
557.500000	 28.375181 
555.000000	 25.794669 
552.500000	 23.590826 
550.000000	 21.837078 
547.500000	 20.256490 
545.000000	 18.509526 
542.500000	 16.157342 
540.000000	 13.056914 
537.500000	 9.826208  
535.000000	 6.987074  
532.500000	 4.809872  
530.000000	 3.306544  
527.500000	 2.303896  
525.000000	 1.745735  
522.500000	 1.364092  
520.000000	 1.077943  
517.500000	 0.925820  
515.000000	 0.856057  
512.500000	 0.833005  
510.000000	 0.798146  
507.500000	 0.806384  
505.000000	 0.973528  
502.500000	 1.184139  
500.000000	 1.529615  
497.500000	 2.155219  
495.000000	 3.351771  
492.500000	 5.483755  
490.000000	 8.897132  
487.500000	 13.151027 
485.000000	 16.400511 
482.500000	 17.453421 
480.000000	 17.290905 
477.500000	 17.083449 
475.000000	 17.322131 
472.500000	 17.748410 
470.000000	 18.317575 
467.500000	 19.441594 
465.000000	 21.733005 
462.500000	 25.870989 
460.000000	 32.020623 
457.500000	 39.516614 
455.000000	 45.924344 
452.500000	 48.884743 
450.000000	 49.013774 
447.500000	 48.514605 
445.000000	 48.624056 
442.500000	 48.966838 
440.000000	 47.757585 
437.500000	 43.443693 
435.000000	 36.429345 
432.500000	 29.273920 
430.000000	 24.254208 
427.500000	 21.991447 
425.000000	 22.049560 
422.500000	 23.417247 
420.000000	 25.122797 
417.500000	 25.012484 
415.000000	 19.032168 
412.500000	 9.551792  
410.000000	 4.079254  
407.500000	 2.150746  
405.000000	 1.776410  
402.500000	 2.720296  
400.000000	 7.687195  
397.500000	 12.676524 
395.000000	 7.996900  
392.500000	 4.045907  
390.000000	 5.103535  
387.500000	 8.458069  
385.000000	 8.486340  
382.500000	 3.934897  
380.000000	 2.480525  
377.500000	 1.407789  
375.000000	 0.344913  
372.500000	 0.066329  
370.000000	 -0.022100 
367.500000	 -0.024876 
365.000000	 -0.005529 
362.500000	 -0.013841 
360.000000	 -0.035951 
357.500000	 -0.030396 
355.000000	 0.027616  
352.500000	 0.016568  
350.000000	 -0.030389 

