PE UV                   SPECTRUM    ASCII       PEDS        1.5         
  -1
Y151524G.SP
96/07/30
15:30:53.00
96/07/30
15:30:53.00
FINN POULSEN
Y-FILTER NO.15150Y24. PRODUKTIONSUGE 19/96. MRK.G
350.000000
1









4444

SCAN
1
1


0.0

2.00
MANUAL



UV/VIS




































#HDR
-1
-1
#GR
NM
%T
0.00002384185791015625
0.0
1100.000000
2.500000
301
8
92.154204
-0.052538
#DATA
1100.000000	71.383264 
1097.500000	71.219882 
1095.000000	71.842394 
1092.500000	70.317443 
1090.000000	71.691728 
1087.500000	71.077561 
1085.000000	71.548432 
1082.500000	73.587899 
1080.000000	74.428229 
1077.500000	73.957237 
1075.000000	75.216642 
1072.500000	76.195018 
1070.000000	76.966715 
1067.500000	76.555954 
1065.000000	78.376155 
1062.500000	79.733853 
1060.000000	80.679422 
1057.500000	81.166572 
1055.000000	80.607306 
1052.500000	82.418942 
1050.000000	84.725504 
1047.500000	85.776132 
1045.000000	85.926841 
1042.500000	85.529841 
1040.000000	86.781672 
1037.500000	88.810733 
1035.000000	88.947396 
1032.500000	88.529667 
1030.000000	89.604014 
1027.500000	91.212458 
1025.000000	90.833915 
1022.500000	90.540870 
1020.000000	91.385408 
1017.500000	92.154204 
1015.000000	92.089983 
1012.500000	91.623595 
1010.000000	91.540314 
1007.500000	91.351132 
1005.000000	90.511474 
1002.500000	91.175517 
1000.000000	91.829648 
997.500000	 91.204319 
995.000000	 90.507659 
992.500000	 89.182679 
990.000000	 87.782732 
987.500000	 87.827598 
985.000000	 87.197137 
982.500000	 85.793499 
980.000000	 83.872983 
977.500000	 81.867271 
975.000000	 79.977332 
972.500000	 78.516617 
970.000000	 76.954119 
967.500000	 75.357104 
965.000000	 73.822032 
962.500000	 72.169212 
960.000000	 70.741520 
957.500000	 69.458581 
955.000000	 68.071540 
952.500000	 66.806564 
950.000000	 65.766980 
947.500000	 65.196871 
945.000000	 64.786044 
942.500000	 64.628361 
940.000000	 64.655335 
937.500000	 65.401175 
935.000000	 66.503906 
932.500000	 67.263940 
930.000000	 68.254913 
927.500000	 70.198925 
925.000000	 71.945089 
922.500000	 74.267233 
920.000000	 76.900355 
917.500000	 79.908737 
915.000000	 81.956228 
912.500000	 83.872978 
910.000000	 85.684771 
907.500000	 86.290781 
905.000000	 86.101786 
902.500000	 84.742014 
900.000000	 82.181046 
897.500000	 78.733907 
895.000000	 74.140508 
892.500000	 70.049188 
890.000000	 65.295838 
887.500000	 61.466919 
885.000000	 56.838665 
882.500000	 53.719589 
880.000000	 51.153522 
877.500000	 48.958276 
875.000000	 47.270860 
872.500000	 46.524742 
870.000000	 46.837657 
867.500000	 47.373519 
865.000000	 49.694907 
862.500000	 53.143684 
860.000000	 57.933569 
857.500000	 64.011650 
855.000000	 72.861514 
852.500000	 81.897662 
850.000000	 88.627011 
847.500000	 87.784377 
845.000000	 76.361296 
842.500000	 58.775842 
840.000000	 41.690283 
837.500000	 28.636312 
835.000000	 19.593703 
832.500000	 13.652970 
830.000000	 9.727298  
827.500000	 7.185578  
825.000000	 5.340446  
822.500000	 3.946221  
820.000000	 3.106708  
817.500000	 2.544042  
815.000000	 2.076884  
812.500000	 1.641698  
810.000000	 1.353480  
807.500000	 1.127766  
805.000000	 0.957099  
802.500000	 0.847195  
800.000000	 0.773950  
797.500000	 0.651034  
795.000000	 0.523530  
792.500000	 0.515057  
790.000000	 0.509959  
787.500000	 0.434010  
785.000000	 0.372176  
782.500000	 0.349472  
780.000000	 0.405668  
777.500000	 0.343865  
775.000000	 0.313055  
772.500000	 0.332694  
770.000000	 0.315795  
767.500000	 0.321743  
765.000000	 0.251064  
762.500000	 0.265087  
760.000000	 0.361326  
757.500000	 0.333088  
755.000000	 0.254029  
752.500000	 0.299105  
750.000000	 0.369482  
747.500000	 0.425940  
745.000000	 0.327618  
742.500000	 0.384430  
740.000000	 0.499731  
737.500000	 0.548022  
735.000000	 0.570798  
732.500000	 0.607602  
730.000000	 0.740489  
727.500000	 0.855932  
725.000000	 0.909578  
722.500000	 0.988951  
720.000000	 1.172780  
717.500000	 1.325233  
715.000000	 1.439764  
712.500000	 1.604187  
710.000000	 1.823682  
707.500000	 1.987897  
705.000000	 2.149503  
702.500000	 2.268548  
700.000000	 2.466589  
697.500000	 2.705147  
695.000000	 2.818932  
692.500000	 3.004243  
690.000000	 3.261761  
687.500000	 3.508176  
685.000000	 3.902756  
682.500000	 4.379334  
680.000000	 4.881363  
677.500000	 5.427762  
675.000000	 6.143779  
672.500000	 6.979839  
670.000000	 7.882512  
667.500000	 8.845347  
665.000000	 9.890141  
662.500000	 10.962937 
660.000000	 12.009859 
657.500000	 13.033000 
655.000000	 14.116513 
652.500000	 15.259565 
650.000000	 16.363275 
647.500000	 17.565804 
645.000000	 18.970504 
642.500000	 20.608653 
640.000000	 22.478884 
637.500000	 24.594487 
635.000000	 27.018439 
632.500000	 29.707492 
630.000000	 32.669898 
627.500000	 35.631695 
625.000000	 38.688468 
622.500000	 41.876826 
620.000000	 44.836286 
617.500000	 47.507090 
615.000000	 49.943288 
612.500000	 52.077012 
610.000000	 53.742557 
607.500000	 55.063704 
605.000000	 56.152645 
602.500000	 57.325238 
600.000000	 58.673136 
597.500000	 60.191941 
595.000000	 62.075519 
592.500000	 64.668841 
590.000000	 68.088427 
587.500000	 71.881210 
585.000000	 75.910833 
582.500000	 79.960818 
580.000000	 83.481990 
577.500000	 86.091133 
575.000000	 87.420436 
572.500000	 87.681509 
570.000000	 87.116320 
567.500000	 86.052466 
565.000000	 84.772643 
562.500000	 83.737684 
560.000000	 83.111592 
557.500000	 82.959500 
555.000000	 83.424641 
552.500000	 84.059790 
550.000000	 85.075521 
547.500000	 86.264316 
545.000000	 87.143306 
542.500000	 87.527514 
540.000000	 87.040375 
537.500000	 85.753142 
535.000000	 84.068437 
532.500000	 81.988807 
530.000000	 79.463260 
527.500000	 76.324094 
525.000000	 72.151354 
522.500000	 66.482304 
520.000000	 59.132498 
517.500000	 51.093892 
515.000000	 43.525710 
512.500000	 37.260088 
510.000000	 32.612396 
507.500000	 29.319819 
505.000000	 27.280682 
502.500000	 25.812058 
500.000000	 24.327402 
497.500000	 22.458365 
495.000000	 20.096938 
492.500000	 17.520460 
490.000000	 14.857158 
487.500000	 12.609661 
485.000000	 10.889160 
482.500000	 9.524605  
480.000000	 8.366567  
477.500000	 7.362545  
475.000000	 6.765846  
472.500000	 6.507193  
470.000000	 6.529477  
467.500000	 6.984223  
465.000000	 7.775598  
462.500000	 8.352138  
460.000000	 7.741882  
457.500000	 6.021787  
455.000000	 4.297366  
452.500000	 3.146862  
450.000000	 2.482093  
447.500000	 2.030316  
445.000000	 1.805925  
442.500000	 1.791368  
440.000000	 1.667222  
437.500000	 1.492786  
435.000000	 1.367768  
432.500000	 1.287040  
430.000000	 1.119382  
427.500000	 0.888543  
425.000000	 0.699281  
422.500000	 0.574537  
420.000000	 0.491189  
417.500000	 0.310714  
415.000000	 0.194120  
412.500000	 0.218976  
410.000000	 0.197025  
407.500000	 0.091580  
405.000000	 0.091453  
402.500000	 0.202221  
400.000000	 0.373836  
397.500000	 0.515035  
395.000000	 0.509145  
392.500000	 0.254424  
390.000000	 0.127173  
387.500000	 0.027667  
385.000000	 -0.052538 
382.500000	 -0.005526 
380.000000	 0.005524  
377.500000	 -0.002760 
375.000000	 0.024833  
372.500000	 0.071856  
370.000000	 0.041437  
367.500000	 0.013820  
365.000000	 0.005529  
362.500000	 0.011073  
360.000000	 -0.019358 
357.500000	 -0.011053 
355.000000	 0.030378  
352.500000	 0.002761  
350.000000	 -0.044202 

