PE UV                   SPECTRUM    ASCII       PEDS        1.5         
  -1
Y151524B.SP
96/07/30
15:12:35.00
96/07/30
15:12:35.00
FINN POULSEN
Y-FILTER NO.15150Y24. PRODUKTIONSUGE 19/96. MRK.B
350.000000
1









4444

SCAN
1
1


0.0

2.00
MANUAL



UV/VIS




































#HDR
-1
-1
#GR
NM
%T
0.00002384185791015625
0.0
1100.000000
2.500000
301
8
92.156862
-0.038677
#DATA
1100.000000	71.467295 
1097.500000	71.528850 
1095.000000	71.794115 
1092.500000	70.151214 
1090.000000	69.920585 
1087.500000	70.867345 
1085.000000	71.128919 
1082.500000	72.627807 
1080.000000	73.301023 
1077.500000	72.892232 
1075.000000	74.131379 
1072.500000	75.034065 
1070.000000	74.385653 
1067.500000	75.304705 
1065.000000	78.033398 
1062.500000	80.105028 
1060.000000	79.234075 
1057.500000	78.353962 
1055.000000	79.828569 
1052.500000	82.380441 
1050.000000	83.357146 
1047.500000	83.685027 
1045.000000	83.805124 
1042.500000	85.099472 
1040.000000	86.803543 
1037.500000	87.395779 
1035.000000	87.322013 
1032.500000	88.632905 
1030.000000	90.045521 
1027.500000	90.064841 
1025.000000	89.486119 
1022.500000	90.654737 
1020.000000	91.950209 
1017.500000	91.283955 
1015.000000	91.155580 
1012.500000	92.156862 
1010.000000	91.978214 
1007.500000	91.000539 
1005.000000	90.103680 
1002.500000	90.851385 
1000.000000	90.964329 
997.500000	 90.908597 
995.000000	 91.018323 
992.500000	 89.520974 
990.000000	 87.997636 
987.500000	 88.050297 
985.000000	 87.762572 
982.500000	 86.795957 
980.000000	 85.073613 
977.500000	 83.103839 
975.000000	 81.469588 
972.500000	 80.218859 
970.000000	 78.644168 
967.500000	 76.836922 
965.000000	 75.151646 
962.500000	 73.572104 
960.000000	 71.953985 
957.500000	 70.663237 
955.000000	 69.268384 
952.500000	 67.963411 
950.000000	 67.066627 
947.500000	 66.343042 
945.000000	 65.490269 
942.500000	 65.048779 
940.000000	 65.053807 
937.500000	 65.103306 
935.000000	 65.456814 
932.500000	 66.761687 
930.000000	 67.846120 
927.500000	 69.181354 
925.000000	 70.750689 
922.500000	 72.811172 
920.000000	 74.550825 
917.500000	 77.238775 
915.000000	 79.813563 
912.500000	 82.436936 
910.000000	 84.295655 
907.500000	 85.856860 
905.000000	 85.950189 
902.500000	 86.306306 
900.000000	 84.039398 
897.500000	 81.406829 
895.000000	 77.836662 
892.500000	 73.796776 
890.000000	 69.603381 
887.500000	 65.338937 
885.000000	 60.373042 
882.500000	 56.279598 
880.000000	 52.766557 
877.500000	 50.197521 
875.000000	 47.984219 
872.500000	 46.837731 
870.000000	 46.175584 
867.500000	 46.426264 
865.000000	 47.594362 
862.500000	 49.593801 
860.000000	 53.144509 
857.500000	 57.032431 
855.000000	 64.186856 
852.500000	 73.073474 
850.000000	 82.457662 
847.500000	 89.000336 
845.000000	 86.963456 
842.500000	 74.891301 
840.000000	 56.917983 
837.500000	 39.912526 
835.000000	 27.208956 
832.500000	 18.663931 
830.000000	 13.055946 
827.500000	 9.372981  
825.000000	 6.792081  
822.500000	 5.020673  
820.000000	 3.860873  
817.500000	 3.070298  
815.000000	 2.479315  
812.500000	 1.931741  
810.000000	 1.589847  
807.500000	 1.282447  
805.000000	 1.058439  
802.500000	 0.965408  
800.000000	 0.864009  
797.500000	 0.701764  
795.000000	 0.655820  
792.500000	 0.576977  
790.000000	 0.509959  
787.500000	 0.436828  
785.000000	 0.400372  
782.500000	 0.448114  
780.000000	 0.414119  
777.500000	 0.315679  
775.000000	 0.304594  
772.500000	 0.318597  
770.000000	 0.335532  
767.500000	 0.276586  
765.000000	 0.256706  
762.500000	 0.321489  
760.000000	 0.327452  
757.500000	 0.302038  
755.000000	 0.279432  
752.500000	 0.321679  
750.000000	 0.377943  
747.500000	 0.352599  
745.000000	 0.341740  
742.500000	 0.370297  
740.000000	 0.429148  
737.500000	 0.468926  
735.000000	 0.505806  
732.500000	 0.570863  
730.000000	 0.650048  
727.500000	 0.711864  
725.000000	 0.822010  
722.500000	 0.929614  
720.000000	 1.082348  
717.500000	 1.181124  
715.000000	 1.312477  
712.500000	 1.522138  
710.000000	 1.713413  
707.500000	 1.894582  
705.000000	 2.042028  
702.500000	 2.226119  
700.000000	 2.435509  
697.500000	 2.640133  
695.000000	 2.785003  
692.500000	 3.046676  
690.000000	 3.241958  
687.500000	 3.474226  
685.000000	 3.815022  
682.500000	 4.152866  
680.000000	 4.598221  
677.500000	 5.167138  
675.000000	 5.806707  
672.500000	 6.492807  
670.000000	 7.276383  
667.500000	 8.143156  
665.000000	 9.125658  
662.500000	 10.124861 
660.000000	 11.032411 
657.500000	 11.978339 
655.000000	 12.949110 
652.500000	 13.987935 
650.000000	 15.010774 
647.500000	 16.093714 
645.000000	 17.439024 
642.500000	 18.905670 
640.000000	 20.548721 
637.500000	 22.527223 
635.000000	 24.851063 
632.500000	 27.483190 
630.000000	 30.279833 
627.500000	 33.324831 
625.000000	 36.602714 
622.500000	 39.896740 
620.000000	 43.163713 
617.500000	 46.134429 
615.000000	 48.823229 
612.500000	 51.212181 
610.000000	 53.124468 
607.500000	 54.828183 
605.000000	 56.169669 
602.500000	 57.393327 
600.000000	 58.644760 
597.500000	 60.024418 
595.000000	 61.783313 
592.500000	 64.024960 
590.000000	 66.922072 
587.500000	 70.393504 
585.000000	 74.243930 
582.500000	 78.370858 
580.000000	 82.203726 
577.500000	 85.292361 
575.000000	 87.295408 
572.500000	 88.056605 
570.000000	 87.918527 
567.500000	 87.005633 
565.000000	 85.848922 
562.500000	 84.643202 
560.000000	 83.781088 
557.500000	 83.389859 
555.000000	 83.644353 
552.500000	 84.116841 
550.000000	 85.055534 
547.500000	 86.152923 
545.000000	 87.109029 
542.500000	 87.807667 
540.000000	 87.847311 
537.500000	 87.078764 
535.000000	 85.810907 
532.500000	 84.063710 
530.000000	 81.834098 
527.500000	 79.049750 
525.000000	 75.278773 
522.500000	 70.144719 
520.000000	 63.284153 
517.500000	 55.398245 
515.000000	 47.545212 
512.500000	 40.594923 
510.000000	 35.249630 
507.500000	 31.410344 
505.000000	 28.828483 
502.500000	 27.023356 
500.000000	 25.387828 
497.500000	 23.506041 
495.000000	 21.055369 
492.500000	 18.239686 
490.000000	 15.410807 
487.500000	 13.034425 
485.000000	 11.223013 
482.500000	 9.830952  
480.000000	 8.726329  
477.500000	 7.876081  
475.000000	 7.251514  
472.500000	 6.908665  
470.000000	 6.821468  
467.500000	 7.131172  
465.000000	 7.852940  
462.500000	 8.481479  
460.000000	 8.241004  
457.500000	 6.801883  
455.000000	 4.959763  
452.500000	 3.591319  
450.000000	 2.738292  
447.500000	 2.221177  
445.000000	 1.941855  
442.500000	 1.783036  
440.000000	 1.639435  
437.500000	 1.498345  
435.000000	 1.415028  
432.500000	 1.317618  
430.000000	 1.111049  
427.500000	 0.949630  
425.000000	 0.804728  
422.500000	 0.671681  
420.000000	 0.516164  
417.500000	 0.332907  
415.000000	 0.282861  
412.500000	 0.238379  
410.000000	 0.174825  
407.500000	 0.108231  
405.000000	 0.094224  
402.500000	 0.180060  
400.000000	 0.293531  
397.500000	 0.434734  
395.000000	 0.553418  
392.500000	 0.362278  
390.000000	 0.118879  
387.500000	 0.002766  
385.000000	 0.005530  
382.500000	 0.038685  
380.000000	 0.002762  
377.500000	 -0.013801 
375.000000	 0.019315  
372.500000	 0.024873  
370.000000	 0.033150  
367.500000	 0.019348  
365.000000	 0.002764  
362.500000	 -0.030451 
360.000000	 -0.013827 
357.500000	 0.005526  
355.000000	 0.024855  
352.500000	 -0.024852 
350.000000	 -0.038677 

