PE UV                   SPECTRUM    ASCII       PEDS        1.5         
  -1
Y151524F.SP
96/07/30
15:27:32.00
96/07/30
15:27:32.00
FINN POULSEN
Y-FILTER NO.15150Y24. PRODUKTIONSUGE 19/96. MRK.F
350.000000
1









4444

SCAN
1
1


0.0

2.00
MANUAL



UV/VIS




































#HDR
-1
-1
#GR
NM
%T
0.00002384185791015625
0.0
1100.000000
2.500000
301
8
92.397516
-0.046965
#DATA
1100.000000	71.068824 
1097.500000	71.268666 
1095.000000	71.689509 
1092.500000	70.320124 
1090.000000	70.482766 
1087.500000	71.751890 
1085.000000	72.562254 
1082.500000	74.162312 
1080.000000	75.117076 
1077.500000	75.885033 
1075.000000	75.610289 
1072.500000	74.720662 
1070.000000	76.283809 
1067.500000	77.561278 
1065.000000	79.829444 
1062.500000	82.117621 
1060.000000	81.437683 
1057.500000	80.732411 
1055.000000	82.251304 
1052.500000	84.676731 
1050.000000	85.329999 
1047.500000	85.435782 
1045.000000	85.397754 
1042.500000	86.696440 
1040.000000	88.342719 
1037.500000	88.585318 
1035.000000	88.187093 
1032.500000	89.380026 
1030.000000	90.412987 
1027.500000	90.094685 
1025.000000	89.794877 
1022.500000	91.001762 
1020.000000	92.046171 
1017.500000	91.457463 
1015.000000	91.425639 
1012.500000	92.397516 
1010.000000	92.115058 
1007.500000	91.014023 
1005.000000	90.047709 
1002.500000	90.829776 
1000.000000	90.953478 
997.500000	 90.542337 
995.000000	 90.272809 
992.500000	 88.638700 
990.000000	 87.863321 
987.500000	 87.409358 
985.000000	 84.831598 
982.500000	 82.712373 
980.000000	 81.615689 
977.500000	 81.281386 
975.000000	 79.861298 
972.500000	 78.019454 
970.000000	 75.041980 
967.500000	 72.565198 
965.000000	 71.160095 
962.500000	 70.750101 
960.000000	 69.755886 
957.500000	 68.232268 
955.000000	 66.650456 
952.500000	 65.297282 
950.000000	 64.499689 
947.500000	 64.126213 
945.000000	 64.135576 
942.500000	 63.536894 
940.000000	 64.747499 
937.500000	 65.577188 
935.000000	 66.788736 
932.500000	 68.480208 
930.000000	 69.638312 
927.500000	 71.275877 
925.000000	 73.469167 
922.500000	 75.780129 
920.000000	 78.458578 
917.500000	 80.916424 
915.000000	 83.174817 
912.500000	 84.772536 
910.000000	 86.005545 
907.500000	 86.030428 
905.000000	 84.312398 
902.500000	 82.399672 
900.000000	 79.008516 
897.500000	 74.277220 
895.000000	 69.971463 
892.500000	 66.505421 
890.000000	 62.294104 
887.500000	 57.841648 
885.000000	 53.516678 
882.500000	 51.643980 
880.000000	 49.548621 
877.500000	 47.689268 
875.000000	 46.906074 
872.500000	 47.053585 
870.000000	 47.585854 
867.500000	 49.281485 
865.000000	 52.753928 
862.500000	 57.851837 
860.000000	 64.311775 
857.500000	 72.105528 
855.000000	 81.210521 
852.500000	 88.435240 
850.000000	 88.624212 
847.500000	 78.956068 
845.000000	 62.155128 
842.500000	 44.727762 
840.000000	 30.923987 
837.500000	 21.161825 
835.000000	 14.714217 
832.500000	 10.437861 
830.000000	 7.646893  
827.500000	 5.787212  
825.000000	 4.295942  
822.500000	 3.316175  
820.000000	 2.678973  
817.500000	 2.155681  
815.000000	 1.784206  
812.500000	 1.433318  
810.000000	 1.215600  
807.500000	 0.970273  
805.000000	 0.841684  
802.500000	 0.788088  
800.000000	 0.695148  
797.500000	 0.572121  
795.000000	 0.579824  
792.500000	 0.500985  
790.000000	 0.462062  
787.500000	 0.411464  
785.000000	 0.366537  
782.500000	 0.391747  
780.000000	 0.352142  
777.500000	 0.287494  
775.000000	 0.301773  
772.500000	 0.332694  
770.000000	 0.324254  
767.500000	 0.279408  
765.000000	 0.284916  
762.500000	 0.307388  
760.000000	 0.335920  
757.500000	 0.352848  
755.000000	 0.276609  
752.500000	 0.338610  
750.000000	 0.386405  
747.500000	 0.392090  
745.000000	 0.409523  
742.500000	 0.469231  
740.000000	 0.522318  
737.500000	 0.553672  
735.000000	 0.644267  
732.500000	 0.757383  
730.000000	 0.825278  
727.500000	 0.923728  
725.000000	 1.014095  
722.500000	 1.124579  
720.000000	 1.336686  
717.500000	 1.418479  
715.000000	 1.564223  
712.500000	 1.725845  
710.000000	 1.902850  
707.500000	 2.058590  
705.000000	 2.183443  
702.500000	 2.356235  
700.000000	 2.508970  
697.500000	 2.724934  
695.000000	 2.889617  
692.500000	 3.080622  
690.000000	 3.374918  
687.500000	 3.618514  
685.000000	 4.024452  
682.500000	 4.549186  
680.000000	 5.113539  
677.500000	 5.739376  
675.000000	 6.546000  
672.500000	 7.413070  
670.000000	 8.375346  
667.500000	 9.428619  
665.000000	 10.535704 
662.500000	 11.690591 
660.000000	 12.774818 
657.500000	 13.911884 
655.000000	 15.082738 
652.500000	 16.273471 
650.000000	 17.579675 
647.500000	 18.879056 
645.000000	 20.425411 
642.500000	 22.226630 
640.000000	 24.216314 
637.500000	 26.534142 
635.000000	 29.060992 
632.500000	 31.843844 
630.000000	 34.833149 
627.500000	 37.836535 
625.000000	 41.006602 
622.500000	 44.069671 
620.000000	 46.866052 
617.500000	 49.461145 
615.000000	 51.715533 
612.500000	 53.508946 
610.000000	 54.913524 
607.500000	 56.090916 
605.000000	 57.179741 
602.500000	 58.301180 
600.000000	 59.635084 
597.500000	 61.347568 
595.000000	 63.539391 
592.500000	 66.504041 
590.000000	 70.143027 
587.500000	 74.033274 
585.000000	 78.179752 
582.500000	 81.953947 
580.000000	 85.021588 
577.500000	 87.088888 
575.000000	 87.934757 
572.500000	 87.744025 
570.000000	 86.871675 
567.500000	 85.705343 
565.000000	 84.616041 
562.500000	 83.720599 
560.000000	 83.288225 
557.500000	 83.349958 
555.000000	 83.918278 
552.500000	 84.801460 
550.000000	 86.014904 
547.500000	 87.069778 
545.000000	 87.674597 
542.500000	 87.667590 
540.000000	 86.765673 
537.500000	 85.060268 
535.000000	 82.913478 
532.500000	 80.482135 
530.000000	 77.563145 
527.500000	 73.850920 
525.000000	 68.860541 
522.500000	 62.261068 
520.000000	 54.574827 
517.500000	 46.860756 
515.000000	 40.090141 
512.500000	 34.749817 
510.000000	 30.932380 
507.500000	 28.344978 
505.000000	 26.681798 
502.500000	 25.304182 
500.000000	 23.725320 
497.500000	 21.655600 
495.000000	 19.149460 
492.500000	 16.511890 
490.000000	 13.993466 
487.500000	 11.962798 
485.000000	 10.332739 
482.500000	 8.970395  
480.000000	 7.875728  
477.500000	 6.988557  
475.000000	 6.517430  
472.500000	 6.362217  
470.000000	 6.551724  
467.500000	 7.217123  
465.000000	 7.985526  
462.500000	 8.140238  
460.000000	 7.028850  
457.500000	 5.238955  
455.000000	 3.755405  
452.500000	 2.825866  
450.000000	 2.308539  
447.500000	 1.994357  
445.000000	 1.817021  
442.500000	 1.777481  
440.000000	 1.608869  
437.500000	 1.470547  
435.000000	 1.334408  
432.500000	 1.181408  
430.000000	 1.019387  
427.500000	 0.835786  
425.000000	 0.704831  
422.500000	 0.568986  
420.000000	 0.419037  
417.500000	 0.307939  
415.000000	 0.232945  
412.500000	 0.218976  
410.000000	 0.149850  
407.500000	 0.058278  
405.000000	 0.133022  
402.500000	 0.246544  
400.000000	 0.395990  
397.500000	 0.548263  
395.000000	 0.475940  
392.500000	 0.204646  
390.000000	 0.077410  
387.500000	 -0.005533 
385.000000	 -0.013825 
382.500000	 0.022106  
380.000000	 0.019335  
377.500000	 0.005520  
375.000000	 0.052426  
372.500000	 0.046983  
370.000000	 0.041437  
367.500000	 0.038696  
365.000000	 0.016587  
362.500000	 -0.035988 
360.000000	 -0.024889 
357.500000	 0.030396  
355.000000	 0.041425  
352.500000	 -0.035897 
350.000000	 -0.046965 

