PE UV                   SPECTRUM    ASCII       PEDS        1.5         
  -1
Y151524H.SP
96/07/30
15:34:49.00
96/07/30
15:34:49.00
FINN POULSEN
Y-FILTER NO.15150Y24. PRODUKTIONSUGE 19/96. MRK.H
350.000000
1









4444

SCAN
1
1


0.0

2.00
MANUAL



UV/VIS




































#HDR
-1
-1
#GR
NM
%T
0.00002384185791015625
0.0
1100.000000
2.500000
301
8
92.206700
-0.063599
#DATA
1100.000000	71.288390 
1097.500000	71.320161 
1095.000000	71.622455 
1092.500000	70.011796 
1090.000000	71.274186 
1087.500000	70.867345 
1085.000000	71.408594 
1082.500000	72.863043 
1080.000000	73.589631 
1077.500000	73.258917 
1075.000000	74.412946 
1072.500000	75.396522 
1070.000000	75.856320 
1067.500000	75.147960 
1065.000000	76.522525 
1062.500000	78.815539 
1060.000000	79.666584 
1057.500000	80.338699 
1055.000000	79.982694 
1052.500000	81.478425 
1050.000000	83.500027 
1047.500000	84.814986 
1045.000000	85.271526 
1042.500000	84.647448 
1040.000000	86.059926 
1037.500000	88.272996 
1035.000000	88.418139 
1032.500000	87.902086 
1030.000000	88.992486 
1027.500000	90.667136 
1025.000000	90.433872 
1022.500000	89.798020 
1020.000000	90.801414 
1017.500000	91.996963 
1015.000000	91.919846 
1012.500000	91.268083 
1010.000000	91.250205 
1007.500000	91.291801 
1005.000000	90.458167 
1002.500000	91.075576 
1000.000000	92.206700 
997.500000	 91.904283 
995.000000	 90.903629 
992.500000	 89.569688 
990.000000	 88.150754 
987.500000	 88.370766 
985.000000	 88.106749 
982.500000	 86.711281 
980.000000	 84.495029 
977.500000	 82.593552 
975.000000	 81.218630 
972.500000	 80.175628 
970.000000	 78.847299 
967.500000	 77.102045 
965.000000	 75.563258 
962.500000	 73.672117 
960.000000	 71.891877 
957.500000	 70.768814 
955.000000	 69.552061 
952.500000	 68.297013 
950.000000	 67.562757 
947.500000	 67.249190 
945.000000	 65.974088 
942.500000	 64.313049 
940.000000	 64.915562 
937.500000	 65.376804 
935.000000	 66.232638 
932.500000	 67.011456 
930.000000	 67.908387 
927.500000	 69.532241 
925.000000	 71.131708 
922.500000	 72.711034 
920.000000	 75.087396 
917.500000	 78.007442 
915.000000	 80.356660 
912.500000	 82.710596 
910.000000	 84.787690 
907.500000	 86.236541 
905.000000	 86.502436 
902.500000	 86.314496 
900.000000	 84.455690 
897.500000	 81.635937 
895.000000	 77.670879 
892.500000	 73.364676 
890.000000	 69.226809 
887.500000	 65.135574 
885.000000	 60.443839 
882.500000	 56.458203 
880.000000	 52.953615 
877.500000	 49.943178 
875.000000	 47.919368 
872.500000	 46.942960 
870.000000	 46.455484 
867.500000	 46.170613 
865.000000	 47.097575 
862.500000	 49.741266 
860.000000	 53.668819 
857.500000	 57.869825 
855.000000	 65.006597 
852.500000	 73.944964 
850.000000	 83.238628 
847.500000	 89.280511 
845.000000	 86.319883 
842.500000	 73.645824 
840.000000	 55.714245 
837.500000	 39.133116 
835.000000	 26.619714 
832.500000	 18.222696 
830.000000	 12.727017 
827.500000	 9.201696  
825.000000	 6.710655  
822.500000	 4.939104  
820.000000	 3.787708  
817.500000	 2.963359  
815.000000	 2.423031  
812.500000	 1.866974  
810.000000	 1.496989  
807.500000	 1.262761  
805.000000	 1.027474  
802.500000	 0.897858  
800.000000	 0.841494  
797.500000	 0.729947  
795.000000	 0.588268  
792.500000	 0.543202  
790.000000	 0.504324  
787.500000	 0.450920  
785.000000	 0.386274  
782.500000	 0.400202  
780.000000	 0.411302  
777.500000	 0.312861  
775.000000	 0.282031  
772.500000	 0.332694  
770.000000	 0.321434  
767.500000	 0.256829  
765.000000	 0.203108  
762.500000	 0.287648  
760.000000	 0.375441  
757.500000	 0.321797  
755.000000	 0.217336  
752.500000	 0.256779  
750.000000	 0.335636  
747.500000	 0.358240  
745.000000	 0.307848  
742.500000	 0.353336  
740.000000	 0.457381  
737.500000	 0.483050  
735.000000	 0.488852  
732.500000	 0.539776  
730.000000	 0.667005  
727.500000	 0.776836  
725.000000	 0.822010  
722.500000	 0.884405  
720.000000	 1.065393  
717.500000	 1.212206  
715.000000	 1.343591  
712.500000	 1.479700  
710.000000	 1.721895  
707.500000	 1.911548  
705.000000	 2.050513  
702.500000	 2.223290  
700.000000	 2.446811  
697.500000	 2.696667  
695.000000	 2.818932  
692.500000	 3.012729  
690.000000	 3.241958  
687.500000	 3.451592  
685.000000	 3.786721  
682.500000	 4.243453  
680.000000	 4.717141  
677.500000	 5.186968  
675.000000	 5.857693  
672.500000	 6.589081  
670.000000	 7.358522  
667.500000	 8.216773  
665.000000	 9.187949  
662.500000	 10.229621 
660.000000	 11.120240 
657.500000	 12.012361 
655.000000	 13.022781 
652.500000	 14.036081 
650.000000	 15.118521 
647.500000	 16.184479 
645.000000	 17.470221 
642.500000	 18.999178 
640.000000	 20.679099 
637.500000	 22.697368 
635.000000	 25.007092 
632.500000	 27.690299 
630.000000	 30.566187 
627.500000	 33.616731 
625.000000	 36.874769 
622.500000	 40.211625 
620.000000	 43.441530 
617.500000	 46.352807 
615.000000	 49.033063 
612.500000	 51.475883 
610.000000	 53.351290 
607.500000	 54.870747 
605.000000	 56.127110 
602.500000	 57.416023 
600.000000	 58.786640 
597.500000	 60.189102 
595.000000	 61.859910 
592.500000	 64.132747 
590.000000	 67.132073 
587.500000	 70.620634 
585.000000	 74.530739 
582.500000	 78.632066 
580.000000	 82.419611 
577.500000	 85.408908 
575.000000	 87.269834 
572.500000	 88.033872 
570.000000	 87.912838 
567.500000	 86.957263 
565.000000	 85.706557 
562.500000	 84.532148 
560.000000	 83.715563 
557.500000	 83.452560 
555.000000	 83.738515 
552.500000	 84.225239 
550.000000	 85.064100 
547.500000	 86.135785 
545.000000	 87.151875 
542.500000	 87.747634 
540.000000	 87.709960 
537.500000	 86.952787 
535.000000	 85.684807 
532.500000	 83.925957 
530.000000	 81.693455 
527.500000	 78.906294 
525.000000	 75.144044 
522.500000	 69.875340 
520.000000	 62.912449 
517.500000	 54.982338 
515.000000	 47.202222 
512.500000	 40.420442 
510.000000	 35.098931 
507.500000	 31.302642 
505.000000	 28.760118 
502.500000	 26.974470 
500.000000	 25.311889 
497.500000	 23.323718 
495.000000	 20.849991 
492.500000	 18.052302 
490.000000	 15.239176 
487.500000	 12.867851 
485.000000	 11.111729 
482.500000	 9.775252  
480.000000	 8.698441  
477.500000	 7.825844  
475.000000	 7.229184  
472.500000	 6.933757  
470.000000	 6.868743  
467.500000	 7.194942  
465.000000	 7.927519  
462.500000	 8.564037  
460.000000	 8.230035  
457.500000	 6.708819  
455.000000	 4.888596  
452.500000	 3.550165  
450.000000	 2.719008  
447.500000	 2.182451  
445.000000	 1.883599  
442.500000	 1.769149  
440.000000	 1.656107  
437.500000	 1.484446  
435.000000	 1.376108  
432.500000	 1.281481  
430.000000	 1.108271  
427.500000	 0.952407  
425.000000	 0.785303  
422.500000	 0.660578  
420.000000	 0.530040  
417.500000	 0.335682  
415.000000	 0.238491  
412.500000	 0.224519  
410.000000	 0.174825  
407.500000	 0.077704  
405.000000	 0.066511  
402.500000	 0.168979  
400.000000	 0.310146  
397.500000	 0.431965  
395.000000	 0.528514  
392.500000	 0.353982  
390.000000	 0.146526  
387.500000	 0.002766  
385.000000	 -0.063599 
382.500000	 0.013816  
380.000000	 0.030385  
377.500000	 0.008281  
375.000000	 0.024833  
372.500000	 0.027637  
370.000000	 -0.005525 
367.500000	 0.019348  
365.000000	 0.005529  
362.500000	 0.011073  
360.000000	 -0.022123 
357.500000	 -0.030396 
355.000000	 0.016570  
352.500000	 -0.011045 
350.000000	 -0.052490 

