Spectrum: Y290803T
Comment:  Z-filter testkit
No. of data points: 201
Data interval: -2,00
Abscissa units: NM
Ordinate units: %T

Abscissa Ordinate
-------------------
 350,00  0,0014
 355,00  0,0036
 360,00  0,0074
 365,00  0,0162
 370,00  0,0358
 375,00  0,0766
 380,00  0,1304
 385,00  0,2079
 390,00  0,3724
 395,00  0,8177
 400,00  2,0993
 405,00  6,2851
 410,00  17,137
 415,00  37,979
 420,00  60,173
 425,00  73,282
 430,00  80,746
 435,00  84,602
 440,00  85,103
 445,00  84,841
 450,00  85,548
 455,00  86,101
 460,00  81,704
 465,00  66,815
 470,00  47,726
 475,00  33,605
 480,00  25,455
 485,00  21,598
 490,00  19,593
 495,00  17,403
 500,00  14,190
 505,00  10,628
 510,00  7,6659
 515,00  5,4427
 520,00  3,6502
 525,00  2,2514
 530,00  1,2842
 535,00  0,7295
 540,00  0,4226
 545,00  0,2628
 550,00  0,1724
 555,00  0,1215
 560,00  0,0906
 565,00  0,0716
 570,00  0,0590
 575,00  0,0504
 580,00  0,0433
 585,00  0,0359
 590,00  0,0283
 595,00  0,0222
 600,00  0,0173
 605,00  0,0143
 610,00  0,0121
 615,00  0,0113
 620,00  0,0107
 625,00  0,0113
 630,00  0,0123
 635,00  0,0151
 640,00  0,0190
 645,00  0,0273
 650,00  0,0424
 655,00  0,0738
 660,00  0,1318
 665,00  0,1865
 670,00  0,1873
 675,00  0,1445
 680,00  0,1049
 685,00  0,0823
 690,00  0,0701
 695,00  0,0660
 700,00  0,0664
 705,00  0,0717
 710,00  0,0806
 715,00  0,0942
 720,00  0,1142
 725,00  0,1385
 730,00  0,1656
 735,00  0,1992
 740,00  0,2299
 745,00  0,2587
 750,00  0,2873
