PE UV                   SPECTRUM    ASCII       PEDS        1.5         
  -1
X151424C.SP
96/07/30
14:23:05.00
96/07/30
14:23:05.00
FINN POULSEN
X-FILTER NO.1540X24. PRODUKTIONSUGE 23/96. MRK.C.
350.000000
1









4444

SCAN
1
1


0.0

2.00
MANUAL



UV/VIS




































#HDR
-1
-1
#GR
NM
%T
0.00002384185791015625
0.0
1100.000000
2.500000
301
8
91.956922
-0.041437
#DATA
1100.000000	90.585779 
1097.500000	90.281052 
1095.000000	90.368264 
1092.500000	88.500723 
1090.000000	88.297901 
1087.500000	89.472822 
1085.000000	89.350830 
1082.500000	90.552257 
1080.000000	90.179154 
1077.500000	89.115371 
1075.000000	90.199830 
1072.500000	89.859377 
1070.000000	88.433618 
1067.500000	88.771180 
1065.000000	89.947626 
1062.500000	90.462181 
1060.000000	90.495743 
1057.500000	88.811584 
1055.000000	89.124732 
1052.500000	91.241096 
1050.000000	91.325493 
1047.500000	90.445721 
1045.000000	89.539130 
1042.500000	89.717147 
1040.000000	90.308382 
1037.500000	91.466825 
1035.000000	91.233679 
1032.500000	90.154314 
1030.000000	90.407502 
1027.500000	91.649257 
1025.000000	91.258121 
1022.500000	90.069133 
1020.000000	90.494338 
1017.500000	91.419508 
1015.000000	91.298711 
1012.500000	90.319140 
1010.000000	88.789753 
1007.500000	88.392664 
1005.000000	89.349396 
1002.500000	90.276052 
1000.000000	89.401871 
997.500000	 88.051764 
995.000000	 88.508697 
992.500000	 89.442489 
990.000000	 89.289743 
987.500000	 88.381630 
985.000000	 86.481466 
982.500000	 86.708549 
980.000000	 87.955669 
977.500000	 88.293104 
975.000000	 88.016082 
972.500000	 88.068089 
970.000000	 88.370077 
967.500000	 88.418461 
965.000000	 88.328639 
962.500000	 89.298553 
960.000000	 89.798012 
957.500000	 90.254466 
955.000000	 90.379315 
952.500000	 89.946193 
950.000000	 90.338932 
947.500000	 90.841423 
945.000000	 91.052037 
942.500000	 90.707702 
940.000000	 91.645658 
937.500000	 91.895258 
935.000000	 91.956922 
932.500000	 91.562143 
930.000000	 90.716876 
927.500000	 90.158978 
925.000000	 89.209857 
922.500000	 88.906330 
920.000000	 88.566705 
917.500000	 88.114186 
915.000000	 86.819778 
912.500000	 86.100197 
910.000000	 85.668460 
907.500000	 84.953760 
905.000000	 84.382782 
902.500000	 82.967512 
900.000000	 83.206813 
897.500000	 83.021492 
895.000000	 82.967794 
892.500000	 82.729570 
890.000000	 83.227676 
887.500000	 83.603579 
885.000000	 83.343771 
882.500000	 84.464048 
880.000000	 85.257678 
877.500000	 85.375290 
875.000000	 85.678772 
872.500000	 85.686147 
870.000000	 85.267520 
867.500000	 84.012378 
865.000000	 82.037367 
862.500000	 78.400407 
860.000000	 74.238534 
857.500000	 68.755951 
855.000000	 62.847758 
852.500000	 56.035980 
850.000000	 49.396780 
847.500000	 43.306623 
845.000000	 37.307627 
842.500000	 32.127128 
840.000000	 27.444653 
837.500000	 23.365481 
835.000000	 19.888324 
832.500000	 16.969254 
830.000000	 14.371661 
827.500000	 12.371886 
825.000000	 10.647199 
822.500000	 9.149720  
820.000000	 7.918730  
817.500000	 6.956717  
815.000000	 6.078685  
812.500000	 5.274273  
810.000000	 4.651359  
807.500000	 4.122957  
805.000000	 3.651052  
802.500000	 3.270567  
800.000000	 2.997298  
797.500000	 2.753508  
795.000000	 2.493807  
792.500000	 2.260061  
790.000000	 2.129997  
787.500000	 1.972775  
785.000000	 1.798855  
782.500000	 1.705089  
780.000000	 1.693100  
777.500000	 1.586854  
775.000000	 1.491947  
772.500000	 1.432276  
770.000000	 1.412620  
767.500000	 1.397042  
765.000000	 1.325848  
762.500000	 1.297236  
760.000000	 1.357798  
757.500000	 1.338000  
755.000000	 1.284258  
752.500000	 1.306470  
750.000000	 1.398956  
747.500000	 1.480917  
745.000000	 1.460163  
742.500000	 1.509455  
740.000000	 1.629069  
737.500000	 1.782485  
735.000000	 1.898895  
732.500000	 1.955630  
730.000000	 2.179074  
727.500000	 2.429378  
725.000000	 2.632693  
722.500000	 2.851007  
720.000000	 3.218787  
717.500000	 3.625317  
715.000000	 4.002489  
712.500000	 4.475880  
710.000000	 5.075209  
707.500000	 5.712023  
705.000000	 6.414571  
702.500000	 7.170537  
700.000000	 8.035487  
697.500000	 9.005851  
695.000000	 9.927052  
692.500000	 10.950495 
690.000000	 12.088036 
687.500000	 13.379165 
685.000000	 14.807267 
682.500000	 16.512384 
680.000000	 18.443852 
677.500000	 20.515580 
675.000000	 22.988896 
672.500000	 25.880620 
670.000000	 29.145187 
667.500000	 32.685882 
665.000000	 36.607395 
662.500000	 40.853365 
660.000000	 45.200589 
657.500000	 49.413132 
655.000000	 53.343533 
652.500000	 57.036449 
650.000000	 60.332312 
647.500000	 62.950987 
645.000000	 65.184344 
642.500000	 67.187101 
640.000000	 68.989853 
637.500000	 70.485480 
635.000000	 71.832624 
632.500000	 73.115442 
630.000000	 74.420912 
627.500000	 75.656067 
625.000000	 77.025533 
622.500000	 78.525431 
620.000000	 79.810063 
617.500000	 80.916052 
615.000000	 81.690580 
612.500000	 82.096577 
610.000000	 81.763538 
607.500000	 80.667404 
605.000000	 78.734572 
602.500000	 76.197231 
600.000000	 73.300984 
597.500000	 70.240495 
595.000000	 67.204743 
592.500000	 64.507162 
590.000000	 62.355979 
587.500000	 60.544546 
585.000000	 58.869799 
582.500000	 57.448681 
580.000000	 56.007840 
577.500000	 54.342079 
575.000000	 52.085701 
572.500000	 49.222812 
570.000000	 45.976161 
567.500000	 42.218175 
565.000000	 38.205062 
562.500000	 34.255937 
560.000000	 30.588872 
557.500000	 27.389061 
555.000000	 24.790275 
552.500000	 22.486878 
550.000000	 20.475116 
547.500000	 18.519893 
545.000000	 16.355794 
542.500000	 13.861810 
540.000000	 10.968037 
537.500000	 8.165602  
535.000000	 5.877969  
532.500000	 4.149806  
530.000000	 2.970723  
527.500000	 2.126011  
525.000000	 1.602407  
522.500000	 1.306777  
520.000000	 1.080802  
517.500000	 0.928669  
515.000000	 0.856057  
512.500000	 0.875218  
510.000000	 0.881868  
507.500000	 0.883709  
505.000000	 1.099321  
502.500000	 1.425855  
500.000000	 1.855066  
497.500000	 2.664090  
495.000000	 4.173284  
492.500000	 6.880872  
490.000000	 10.571918 
487.500000	 14.058856 
485.000000	 15.835744 
482.500000	 16.008020 
480.000000	 15.949465 
477.500000	 16.318727 
475.000000	 17.297010 
472.500000	 18.601538 
470.000000	 20.041713 
467.500000	 22.053400 
465.000000	 25.216142 
462.500000	 30.186031 
460.000000	 36.828104 
457.500000	 43.386981 
455.000000	 47.385996 
452.500000	 48.130264 
450.000000	 47.363636 
447.500000	 47.076233 
445.000000	 47.814025 
442.500000	 48.528023 
440.000000	 46.823941 
437.500000	 41.664581 
435.000000	 34.441633 
432.500000	 28.017457 
430.000000	 24.020887 
427.500000	 22.438496 
425.000000	 22.510197 
422.500000	 23.181326 
420.000000	 23.738032 
417.500000	 22.127281 
415.000000	 15.682196 
412.500000	 7.805527  
410.000000	 3.621378  
407.500000	 2.175722  
405.000000	 2.028599  
402.500000	 3.736945  
400.000000	 10.032676 
397.500000	 13.939192 
395.000000	 7.069924  
392.500000	 4.402654  
390.000000	 6.400154  
387.500000	 9.797194  
385.000000	 8.226413  
382.500000	 3.744231  
380.000000	 2.640738  
377.500000	 1.283573  
375.000000	 0.212466  
372.500000	 0.060802  
370.000000	 -0.041437 
367.500000	 -0.027640 
365.000000	 0.011058  
362.500000	 0.013841  
360.000000	 0.027654  
357.500000	 -0.024870 
355.000000	 0.044186  
352.500000	 0.038659  
350.000000	 -0.019338 

