PE UV                   SPECTRUM    ASCII       PEDS        1.5         
  -1
Y151524J.SP
96/07/30
15:43:55.00
96/07/30
15:43:55.00
FINN POULSEN
Y-FILTER NO.15150Y24. PRODUKTIONSUGE 19/96. MRK.J
350.000000
1









4444

SCAN
1
1


0.0

2.00
MANUAL



UV/VIS




































#HDR
-1
-1
#GR
NM
%T
0.00002384185791015625
0.0
1100.000000
2.500000
301
8
92.647616
-0.049773
#DATA
1100.000000	71.280258 
1097.500000	71.138574 
1095.000000	71.507121 
1092.500000	70.545337 
1090.000000	72.139289 
1087.500000	72.478091 
1085.000000	71.642553 
1082.500000	73.527722 
1080.000000	74.180461 
1077.500000	73.717274 
1075.000000	75.580219 
1072.500000	76.800021 
1070.000000	77.305479 
1067.500000	76.696484 
1065.000000	77.814033 
1062.500000	80.160017 
1060.000000	81.634775 
1057.500000	82.045681 
1055.000000	81.499607 
1052.500000	83.188955 
1050.000000	85.445403 
1047.500000	86.383314 
1045.000000	86.649299 
1042.500000	86.203816 
1040.000000	87.096068 
1037.500000	89.006273 
1035.000000	89.621729 
1032.500000	89.119213 
1030.000000	90.012614 
1027.500000	91.421362 
1025.000000	91.204424 
1022.500000	90.559848 
1020.000000	91.385408 
1017.500000	92.647616 
1015.000000	92.554484 
1012.500000	91.711105 
1010.000000	91.441786 
1007.500000	91.202804 
1005.000000	90.303579 
1002.500000	90.905407 
1000.000000	91.886613 
997.500000	 91.399658 
995.000000	 90.291924 
992.500000	 88.573748 
990.000000	 86.995648 
987.500000	 87.088889 
985.000000	 86.298451 
982.500000	 84.927615 
980.000000	 83.039061 
977.500000	 81.208488 
975.000000	 79.564466 
972.500000	 78.311267 
970.000000	 76.434104 
967.500000	 74.675359 
965.000000	 73.191074 
962.500000	 71.731315 
960.000000	 70.487686 
957.500000	 69.236599 
955.000000	 67.577132 
952.500000	 66.300780 
950.000000	 65.766980 
947.500000	 66.210895 
945.000000	 64.920438 
942.500000	 63.995041 
940.000000	 64.817977 
937.500000	 65.831731 
935.000000	 67.214626 
932.500000	 68.461204 
930.000000	 69.695164 
927.500000	 71.251585 
925.000000	 73.169215 
922.500000	 75.652927 
920.000000	 78.214682 
917.500000	 81.049515 
915.000000	 83.542285 
912.500000	 84.737312 
910.000000	 85.733703 
907.500000	 86.331462 
905.000000	 85.782349 
902.500000	 83.655473 
900.000000	 80.545805 
897.500000	 76.985598 
895.000000	 72.417448 
892.500000	 68.008261 
890.000000	 63.681187 
887.500000	 59.937635 
885.000000	 55.387338 
882.500000	 52.515357 
880.000000	 50.120638 
877.500000	 48.092429 
875.000000	 47.176286 
872.500000	 46.710916 
870.000000	 47.521261 
867.500000	 48.592572 
865.000000	 51.336465 
862.500000	 55.578196 
860.000000	 61.587524 
857.500000	 68.221027 
855.000000	 77.322366 
852.500000	 85.518130 
850.000000	 89.189643 
847.500000	 83.643393 
845.000000	 68.711175 
842.500000	 50.826110 
840.000000	 35.379780 
837.500000	 24.237411 
835.000000	 16.700805 
832.500000	 11.719408 
830.000000	 8.498734  
827.500000	 6.337573  
825.000000	 4.711497  
822.500000	 3.538379  
820.000000	 2.819675  
817.500000	 2.321720  
815.000000	 1.944616  
812.500000	 1.520612  
810.000000	 1.246552  
807.500000	 1.049019  
805.000000	 0.833239  
802.500000	 0.782459  
800.000000	 0.771135  
797.500000	 0.631306  
795.000000	 0.529160  
792.500000	 0.472839  
790.000000	 0.490237  
787.500000	 0.456556  
785.000000	 0.332703  
782.500000	 0.355109  
780.000000	 0.388765  
777.500000	 0.329772  
775.000000	 0.304594  
772.500000	 0.312958  
770.000000	 0.360909  
767.500000	 0.313276  
765.000000	 0.242602  
762.500000	 0.282007  
760.000000	 0.352858  
757.500000	 0.355670  
755.000000	 0.254029  
752.500000	 0.310392  
750.000000	 0.383584  
747.500000	 0.400552  
745.000000	 0.384104  
742.500000	 0.384430  
740.000000	 0.505378  
737.500000	 0.579096  
735.000000	 0.573624  
732.500000	 0.647166  
730.000000	 0.757447  
727.500000	 0.872881  
725.000000	 0.977373  
722.500000	 1.005905  
720.000000	 1.246255  
717.500000	 1.401525  
715.000000	 1.513308  
712.500000	 1.706040  
710.000000	 1.885885  
707.500000	 2.115145  
705.000000	 2.211726  
702.500000	 2.344921  
700.000000	 2.565479  
697.500000	 2.778641  
695.000000	 2.960303  
692.500000	 3.128712  
690.000000	 3.369260  
687.500000	 3.660951  
685.000000	 4.047093  
682.500000	 4.526539  
680.000000	 5.133359  
677.500000	 5.705382  
675.000000	 6.424201  
672.500000	 7.302639  
670.000000	 8.213901  
667.500000	 9.204937  
665.000000	 10.198765 
662.500000	 11.308360 
660.000000	 12.307343 
657.500000	 13.288160 
655.000000	 14.391363 
652.500000	 15.534283 
650.000000	 16.717704 
647.500000	 17.971409 
645.000000	 19.427112 
642.500000	 21.215040 
640.000000	 23.218638 
637.500000	 25.473570 
635.000000	 28.031205 
632.500000	 30.830992 
630.000000	 33.869184 
627.500000	 36.966502 
625.000000	 40.105421 
622.500000	 43.309409 
620.000000	 46.318922 
617.500000	 48.930799 
615.000000	 51.284523 
612.500000	 53.205546 
610.000000	 54.698043 
607.500000	 56.000113 
605.000000	 57.083274 
602.500000	 58.304017 
600.000000	 59.646434 
597.500000	 61.219796 
595.000000	 63.264206 
592.500000	 66.036023 
590.000000	 69.541404 
587.500000	 73.408665 
585.000000	 77.452790 
582.500000	 81.326481 
580.000000	 84.464833 
577.500000	 86.759146 
575.000000	 87.721641 
572.500000	 87.630360 
570.000000	 86.959861 
567.500000	 85.833380 
565.000000	 84.647361 
562.500000	 83.652258 
560.000000	 83.165721 
557.500000	 83.178955 
555.000000	 83.724248 
552.500000	 84.484824 
550.000000	 85.535219 
547.500000	 86.572791 
545.000000	 87.300408 
542.500000	 87.567536 
540.000000	 86.951669 
537.500000	 85.592807 
535.000000	 83.819104 
532.500000	 81.690342 
530.000000	 79.081515 
527.500000	 75.606817 
525.000000	 70.938798 
522.500000	 64.734202 
520.000000	 57.136730 
517.500000	 49.222310 
515.000000	 42.034695 
512.500000	 36.263859 
510.000000	 32.087740 
507.500000	 29.132031 
505.000000	 27.261540 
502.500000	 25.725149 
500.000000	 23.972119 
497.500000	 21.778055 
495.000000	 19.206966 
492.500000	 16.589049 
490.000000	 14.054368 
487.500000	 11.996113 
485.000000	 10.466280 
482.500000	 9.215473  
480.000000	 8.171347  
477.500000	 7.326262  
475.000000	 6.824461  
472.500000	 6.674473  
470.000000	 6.804783  
467.500000	 7.408434  
465.000000	 8.184404  
462.500000	 8.431944  
460.000000	 7.434730  
457.500000	 5.570153  
455.000000	 3.971642  
452.500000	 2.976762  
450.000000	 2.388429  
447.500000	 2.016485  
445.000000	 1.808699  
442.500000	 1.760817  
440.000000	 1.608869  
437.500000	 1.445528  
435.000000	 1.356648  
432.500000	 1.253683  
430.000000	 1.074940  
427.500000	 0.849669  
425.000000	 0.663207  
422.500000	 0.580088  
420.000000	 0.474538  
417.500000	 0.313488  
415.000000	 0.196894  
412.500000	 0.194029  
410.000000	 0.163725  
407.500000	 0.108231  
405.000000	 0.116395  
402.500000	 0.229923  
400.000000	 0.418143  
397.500000	 0.551032  
395.000000	 0.462104  
392.500000	 0.221238  
390.000000	 0.107821  
387.500000	 -0.008300 
385.000000	 -0.049773 
382.500000	 0.035922  
380.000000	 0.035909  
377.500000	 -0.005520 
375.000000	 0.027593  
372.500000	 0.077384  
370.000000	 0.022100  
367.500000	 0.005528  
365.000000	 0.005529  
362.500000	 -0.013841 
360.000000	 -0.038716 
357.500000	 -0.027633 
355.000000	 0.041425  
352.500000	 -0.011045 
350.000000	 -0.049727 

