PE UV                   SPECTRUM    ASCII       PEDS        1.5         
  -1
BG-40I.SP
96/07/31
14:57:37.00
96/07/31
14:57:37.00
FINN POULSEN
BG-40 SCHOTT FARVEGLAS TYKKELSE 1MM. MRKI.
350.000000
1









4444

SCAN
1
1


0.0

2.00
MANUAL



UV/VIS




































#HDR
-1
-1
#GR
NM
%T
0.00002384185791015625
0.0
1100.000000
2.500000
301
8
90.910229
0.160989
#DATA
1100.000000	1.692320  
1097.500000	1.644006  
1095.000000	1.597469  
1092.500000	1.550786  
1090.000000	1.520234  
1087.500000	1.465275  
1085.000000	1.419791  
1082.500000	1.365654  
1080.000000	1.334672  
1077.500000	1.284324  
1075.000000	1.257230  
1072.500000	1.209958  
1070.000000	1.180029  
1067.500000	1.140589  
1065.000000	1.094491  
1062.500000	1.062636  
1060.000000	1.034047  
1057.500000	1.009646  
1055.000000	0.976968  
1052.500000	0.941149  
1050.000000	0.903766  
1047.500000	0.880868  
1045.000000	0.863160  
1042.500000	0.836876  
1040.000000	0.805587  
1037.500000	0.772211  
1035.000000	0.747104  
1032.500000	0.726780  
1030.000000	0.706752  
1027.500000	0.686328  
1025.000000	0.667898  
1022.500000	0.647768  
1020.000000	0.627869  
1017.500000	0.611704  
1015.000000	0.591330  
1012.500000	0.572963  
1010.000000	0.554689  
1007.500000	0.537817  
1005.000000	0.522120  
1002.500000	0.506202  
1000.000000	0.489154  
997.500000	 0.473641  
995.000000	 0.461252  
992.500000	 0.447965  
990.000000	 0.430974  
987.500000	 0.418285  
985.000000	 0.405217  
982.500000	 0.394580  
980.000000	 0.383891  
977.500000	 0.371151  
975.000000	 0.358858  
972.500000	 0.347167  
970.000000	 0.341938  
967.500000	 0.334112  
965.000000	 0.325912  
962.500000	 0.313350  
960.000000	 0.299287  
957.500000	 0.289034  
955.000000	 0.280669  
952.500000	 0.275209  
950.000000	 0.266526  
947.500000	 0.260756  
945.000000	 0.255265  
942.500000	 0.247279  
940.000000	 0.238228  
937.500000	 0.232743  
935.000000	 0.232896  
932.500000	 0.229566  
930.000000	 0.227395  
927.500000	 0.224821  
925.000000	 0.216223  
922.500000	 0.216414  
920.000000	 0.211896  
917.500000	 0.200555  
915.000000	 0.208732  
912.500000	 0.206215  
910.000000	 0.205374  
907.500000	 0.186792  
905.000000	 0.186219  
902.500000	 0.198388  
900.000000	 0.186349  
897.500000	 0.175887  
895.000000	 0.167769  
892.500000	 0.160989  
890.000000	 0.169152  
887.500000	 0.171324  
885.000000	 0.163432  
882.500000	 0.181332  
880.000000	 0.182755  
877.500000	 0.175193  
875.000000	 0.165222  
872.500000	 0.184083  
870.000000	 0.172082  
867.500000	 0.174368  
865.000000	 0.177094  
862.500000	 0.171153  
860.000000	 0.174430  
857.500000	 0.177574  
855.000000	 0.182043  
852.500000	 0.190674  
850.000000	 0.190374  
847.500000	 0.192709  
845.000000	 0.194095  
842.500000	 0.200227  
840.000000	 0.205757  
837.500000	 0.216900  
835.000000	 0.220207  
832.500000	 0.224174  
830.000000	 0.232261  
827.500000	 0.242579  
825.000000	 0.250833  
822.500000	 0.263140  
820.000000	 0.275821  
817.500000	 0.285484  
815.000000	 0.295416  
812.500000	 0.313254  
810.000000	 0.332254  
807.500000	 0.350495  
805.000000	 0.368540  
802.500000	 0.390270  
800.000000	 0.418880  
797.500000	 0.446475  
795.000000	 0.467455  
792.500000	 0.494339  
790.000000	 0.532564  
787.500000	 0.571698  
785.000000	 0.617715  
782.500000	 0.661251  
780.000000	 0.712361  
777.500000	 0.767034  
775.000000	 0.829101  
772.500000	 0.896038  
770.000000	 0.965647  
767.500000	 1.050767  
765.000000	 1.140388  
762.500000	 1.235109  
760.000000	 1.339455  
757.500000	 1.454752  
755.000000	 1.592079  
752.500000	 1.731786  
750.000000	 1.886235  
747.500000	 2.053536  
745.000000	 2.240691  
742.500000	 2.451027  
740.000000	 2.673121  
737.500000	 2.922624  
735.000000	 3.196720  
732.500000	 3.485664  
730.000000	 3.813077  
727.500000	 4.166513  
725.000000	 4.544963  
722.500000	 4.958250  
720.000000	 5.404715  
717.500000	 5.894628  
715.000000	 6.414416  
712.500000	 6.979580  
710.000000	 7.586977  
707.500000	 8.234106  
705.000000	 8.938696  
702.500000	 9.707065  
700.000000	 10.514171 
697.500000	 11.371616 
695.000000	 12.269851 
692.500000	 13.229720 
690.000000	 14.262313 
687.500000	 15.334942 
685.000000	 16.464017 
682.500000	 17.690356 
680.000000	 18.944907 
677.500000	 20.247580 
675.000000	 21.618184 
672.500000	 23.022370 
670.000000	 24.498871 
667.500000	 26.002995 
665.000000	 27.575875 
662.500000	 29.214999 
660.000000	 30.890138 
657.500000	 32.604928 
655.000000	 34.325722 
652.500000	 36.136874 
650.000000	 37.967335 
647.500000	 39.834695 
645.000000	 41.657003 
642.500000	 43.481624 
640.000000	 45.318735 
637.500000	 47.198354 
635.000000	 49.055559 
632.500000	 50.905985 
630.000000	 52.752820 
627.500000	 54.559018 
625.000000	 56.394214 
622.500000	 58.204927 
620.000000	 59.864345 
617.500000	 61.621497 
615.000000	 63.360254 
612.500000	 64.964640 
610.000000	 66.477339 
607.500000	 68.026122 
605.000000	 69.566624 
602.500000	 71.040906 
600.000000	 72.353142 
597.500000	 73.697519 
595.000000	 74.894237 
592.500000	 76.084731 
590.000000	 77.162461 
587.500000	 78.261999 
585.000000	 79.384961 
582.500000	 80.292037 
580.000000	 81.110048 
577.500000	 82.075480 
575.000000	 82.933979 
572.500000	 83.694885 
570.000000	 84.398955 
567.500000	 84.995443 
565.000000	 85.691933 
562.500000	 86.206356 
560.000000	 86.682140 
557.500000	 87.191858 
555.000000	 87.551650 
552.500000	 87.929984 
550.000000	 88.345461 
547.500000	 88.669744 
545.000000	 88.948514 
542.500000	 89.254814 
540.000000	 89.430458 
537.500000	 89.614350 
535.000000	 89.829816 
532.500000	 89.943532 
530.000000	 90.063954 
527.500000	 90.208194 
525.000000	 90.381712 
522.500000	 90.404937 
520.000000	 90.532133 
517.500000	 90.631738 
515.000000	 90.716762 
512.500000	 90.717886 
510.000000	 90.751682 
507.500000	 90.817323 
505.000000	 90.841027 
502.500000	 90.837454 
500.000000	 90.897394 
497.500000	 90.907311 
495.000000	 90.883813 
492.500000	 90.910229 
490.000000	 90.859820 
487.500000	 90.840146 
485.000000	 90.780852 
482.500000	 90.747594 
480.000000	 90.800216 
477.500000	 90.812050 
475.000000	 90.655540 
472.500000	 90.609297 
470.000000	 90.638717 
467.500000	 90.623569 
465.000000	 90.676250 
462.500000	 90.533324 
460.000000	 90.511268 
457.500000	 90.447914 
455.000000	 90.410761 
452.500000	 90.359884 
450.000000	 90.272295 
447.500000	 90.249478 
445.000000	 90.296679 
442.500000	 90.155644 
440.000000	 90.087190 
437.500000	 90.071002 
435.000000	 90.037052 
432.500000	 90.025547 
430.000000	 89.961473 
427.500000	 89.816709 
425.000000	 89.738355 
422.500000	 89.704431 
420.000000	 89.623838 
417.500000	 89.545223 
415.000000	 89.524686 
412.500000	 89.459268 
410.000000	 89.284889 
407.500000	 89.226097 
405.000000	 89.126805 
402.500000	 89.046224 
400.000000	 88.891382 
397.500000	 88.838133 
395.000000	 88.724337 
392.500000	 88.585836 
390.000000	 88.488737 
387.500000	 88.343701 
385.000000	 88.097350 
382.500000	 87.986627 
380.000000	 87.843905 
377.500000	 87.675340 
375.000000	 87.430381 
372.500000	 87.101729 
370.000000	 86.871103 
367.500000	 86.630218 
365.000000	 86.291418 
362.500000	 85.850623 
360.000000	 85.292483 
357.500000	 84.726766 
355.000000	 84.124650 
352.500000	 83.461672 
350.000000	 82.543230 

