PE UV                   SPECTRUM    ASCII       PEDS        1.5         
  -1
X151424F.SP
96/07/30
14:40:14.00
96/07/30
14:40:14.00
FINN POULSEN
X-FILTER NO.1540X24. PRODUKTIONSUGE 23/96. MRK.F.
350.000000
1









4444

SCAN
1
1


0.0

2.00
MANUAL



UV/VIS




































#HDR
-1
-1
#GR
NM
%T
0.00002384185791015625
0.0
1100.000000
2.500000
301
8
92.344835
-0.030410
#DATA
1100.000000	90.585779 
1097.500000	90.264791 
1095.000000	90.443365 
1092.500000	88.733980 
1090.000000	88.404333 
1087.500000	89.197084 
1085.000000	88.993169 
1082.500000	90.251374 
1080.000000	90.565780 
1077.500000	90.285529 
1075.000000	89.715972 
1072.500000	87.921731 
1070.000000	88.178200 
1067.500000	88.619841 
1065.000000	90.704433 
1062.500000	91.864397 
1060.000000	90.085133 
1057.500000	88.194051 
1055.000000	88.840818 
1052.500000	90.867090 
1050.000000	90.731988 
1047.500000	90.135322 
1045.000000	89.257130 
1042.500000	89.925565 
1040.000000	91.082071 
1037.500000	90.624915 
1035.000000	89.987104 
1032.500000	90.776461 
1030.000000	91.562002 
1027.500000	91.068667 
1025.000000	90.090211 
1022.500000	90.909583 
1020.000000	91.763770 
1017.500000	90.711923 
1015.000000	90.296794 
1012.500000	91.265348 
1010.000000	91.020307 
1007.500000	89.803128 
1005.000000	88.733708 
1002.500000	89.282048 
1000.000000	90.310592 
997.500000	 90.159798 
995.000000	 89.535487 
992.500000	 88.411366 
990.000000	 87.444259 
987.500000	 88.297438 
985.000000	 88.762326 
982.500000	 88.855503 
980.000000	 88.412017 
977.500000	 87.826016 
975.000000	 87.635598 
972.500000	 87.884355 
970.000000	 88.245490 
967.500000	 88.231793 
965.000000	 88.840446 
962.500000	 89.139072 
960.000000	 89.284942 
957.500000	 89.534380 
955.000000	 89.984870 
952.500000	 90.239440 
950.000000	 90.732601 
947.500000	 91.750269 
945.000000	 91.073540 
942.500000	 90.052821 
940.000000	 91.407118 
937.500000	 91.944000 
935.000000	 92.344835 
932.500000	 92.107835 
930.000000	 91.499269 
927.500000	 90.822964 
925.000000	 90.277252 
922.500000	 89.407020 
920.000000	 88.832280 
917.500000	 88.613955 
915.000000	 88.081599 
912.500000	 87.173164 
910.000000	 86.889033 
907.500000	 85.010712 
905.000000	 83.982133 
902.500000	 83.701883 
900.000000	 83.059886 
897.500000	 82.917848 
895.000000	 82.701454 
892.500000	 82.580101 
890.000000	 82.718357 
887.500000	 83.345986 
885.000000	 82.829135 
882.500000	 83.143452 
880.000000	 84.200395 
877.500000	 84.468856 
875.000000	 84.919476 
872.500000	 85.392045 
870.000000	 85.200236 
867.500000	 83.815931 
865.000000	 82.507154 
862.500000	 79.909912 
860.000000	 76.387124 
857.500000	 71.985100 
855.000000	 66.502905 
852.500000	 60.141231 
850.000000	 53.433170 
847.500000	 47.181441 
845.000000	 41.051541 
842.500000	 35.389491 
840.000000	 30.345969 
837.500000	 25.857911 
835.000000	 22.012402 
832.500000	 18.711708 
830.000000	 15.940399 
827.500000	 13.618622 
825.000000	 11.694510 
822.500000	 10.058222 
820.000000	 8.644754  
817.500000	 7.516744  
815.000000	 6.604941  
812.500000	 5.741721  
810.000000	 5.056559  
807.500000	 4.457631  
805.000000	 3.935367  
802.500000	 3.504179  
800.000000	 3.197118  
797.500000	 2.939518  
795.000000	 2.651429  
792.500000	 2.395159  
790.000000	 2.220156  
787.500000	 2.060141  
785.000000	 1.917275  
782.500000	 1.795276  
780.000000	 1.721272  
777.500000	 1.600947  
775.000000	 1.553994  
772.500000	 1.466110  
770.000000	 1.452094  
767.500000	 1.419620  
765.000000	 1.348416  
762.500000	 1.305696  
760.000000	 1.343683  
757.500000	 1.352114  
755.000000	 1.295548  
752.500000	 1.331866  
750.000000	 1.387674  
747.500000	 1.455530  
745.000000	 1.465811  
742.500000	 1.452921  
740.000000	 1.561308  
737.500000	 1.711864  
735.000000	 1.833903  
732.500000	 1.927370  
730.000000	 2.085806  
727.500000	 2.302259  
725.000000	 2.539476  
722.500000	 2.718205  
720.000000	 3.020968  
717.500000	 3.368183  
715.000000	 3.787514  
712.500000	 4.232564  
710.000000	 4.767021  
707.500000	 5.423594  
705.000000	 6.078004  
702.500000	 6.816960  
700.000000	 7.651230  
697.500000	 8.629900  
695.000000	 9.573625  
692.500000	 10.568599 
690.000000	 11.703301 
687.500000	 12.934985 
685.000000	 14.306333 
682.500000	 15.920736 
680.000000	 17.778469 
677.500000	 19.728045 
675.000000	 21.997507 
672.500000	 24.719673 
670.000000	 27.723333 
667.500000	 31.103120 
665.000000	 34.826434 
662.500000	 38.879922 
660.000000	 43.002039 
657.500000	 47.173395 
655.000000	 51.184404 
652.500000	 54.875527 
650.000000	 58.290801 
647.500000	 61.223621 
645.000000	 63.723766 
642.500000	 65.894987 
640.000000	 67.926988 
637.500000	 69.694305 
635.000000	 71.163120 
632.500000	 72.689874 
630.000000	 74.131722 
627.500000	 75.491696 
625.000000	 76.881004 
622.500000	 78.355223 
620.000000	 79.736357 
617.500000	 80.952921 
615.000000	 81.809675 
612.500000	 82.306405 
610.000000	 82.160476 
607.500000	 81.365455 
605.000000	 79.781529 
602.500000	 77.519291 
600.000000	 74.787889 
597.500000	 71.819188 
595.000000	 68.770745 
592.500000	 66.047369 
590.000000	 63.899767 
587.500000	 62.106070 
585.000000	 60.485588 
582.500000	 59.015927 
580.000000	 57.632655 
577.500000	 56.002160 
575.000000	 53.790634 
572.500000	 51.010201 
570.000000	 47.711432 
567.500000	 43.945256 
565.000000	 39.884969 
562.500000	 35.830628 
560.000000	 32.070311 
557.500000	 28.785590 
555.000000	 26.085715 
552.500000	 23.781948 
550.000000	 21.828512 
547.500000	 20.010853 
545.000000	 18.041075 
542.500000	 15.577027 
540.000000	 12.533264 
537.500000	 9.422509  
535.000000	 6.726277  
532.500000	 4.700817  
530.000000	 3.297933  
527.500000	 2.329718  
525.000000	 1.717070  
522.500000	 1.372689  
520.000000	 1.155143  
517.500000	 0.965701  
515.000000	 0.875899  
512.500000	 0.835819  
510.000000	 0.831635  
507.500000	 0.872663  
505.000000	 0.998140  
502.500000	 1.241173  
500.000000	 1.605554  
497.500000	 2.250462  
495.000000	 3.444876  
492.500000	 5.660117  
490.000000	 9.124128  
487.500000	 13.120488 
485.000000	 15.949810 
482.500000	 16.743253 
480.000000	 16.604847 
477.500000	 16.664806 
475.000000	 17.176989 
472.500000	 17.971450 
470.000000	 18.965517 
467.500000	 20.362103 
465.000000	 22.829599 
462.500000	 27.095602 
460.000000	 33.254716 
457.500000	 40.458203 
455.000000	 46.096786 
452.500000	 48.316826 
450.000000	 47.997245 
447.500000	 47.413697 
445.000000	 47.722481 
442.500000	 48.491918 
440.000000	 47.727020 
437.500000	 43.774497 
435.000000	 36.921408 
432.500000	 29.918830 
430.000000	 25.081939 
427.500000	 22.929971 
425.000000	 22.826539 
422.500000	 23.775292 
420.000000	 24.809213 
417.500000	 24.030405 
415.000000	 18.086522 
412.500000	 9.238573  
410.000000	 4.070929  
407.500000	 2.236776  
405.000000	 1.884491  
402.500000	 2.889276  
400.000000	 8.080416  
397.500000	 13.116796 
395.000000	 8.093749  
392.500000	 4.222898  
390.000000	 5.404882  
387.500000	 8.839886  
385.000000	 8.702024  
382.500000	 3.984636  
380.000000	 2.533009  
377.500000	 1.388467  
375.000000	 0.253856  
372.500000	 0.044219  
370.000000	 0.016575  
367.500000	 -0.011056 
365.000000	 -0.030410 
362.500000	 -0.022146 
360.000000	 0.008296  
357.500000	 -0.019343 
355.000000	 0.011046  
352.500000	 0.019329  
350.000000	 -0.016575 

