PE UV                   SPECTRUM    ASCII       PEDS        1.5         
  -1
Y151524I.SP
96/07/30
15:40:40.00
96/07/30
15:40:40.00
FINN POULSEN
Y-FILTER NO.15150Y24. PRODUKTIONSUGE 19/96. MRK.I
350.000000
1









4444

SCAN
1
1


0.0

2.00
MANUAL



UV/VIS




































#HDR
-1
-1
#GR
NM
%T
0.00002384185791015625
0.0
1100.000000
2.500000
301
8
92.564763
-0.024833
#DATA
1100.000000	72.340137 
1097.500000	71.927256 
1095.000000	72.016736 
1092.500000	70.255777 
1090.000000	71.672625 
1087.500000	70.698080 
1085.000000	71.029419 
1082.500000	72.868513 
1080.000000	72.938902 
1077.500000	72.355684 
1075.000000	74.150515 
1072.500000	74.614378 
1070.000000	74.995967 
1067.500000	74.542604 
1065.000000	76.111217 
1062.500000	77.317093 
1060.000000	78.415592 
1057.500000	79.203408 
1055.000000	78.663169 
1052.500000	80.133652 
1050.000000	82.538330 
1047.500000	83.597898 
1045.000000	84.170381 
1042.500000	84.076329 
1040.000000	85.064793 
1037.500000	86.860758 
1035.000000	87.671269 
1032.500000	87.535318 
1030.000000	88.444030 
1027.500000	90.097398 
1025.000000	90.251302 
1022.500000	89.781754 
1020.000000	90.806898 
1017.500000	92.175893 
1015.000000	92.192605 
1012.500000	91.464982 
1010.000000	91.575893 
1007.500000	91.542610 
1005.000000	90.463498 
1002.500000	91.256550 
1000.000000	92.564763 
997.500000	 92.373640 
995.000000	 91.556295 
992.500000	 90.119079 
990.000000	 89.004996 
987.500000	 89.405502 
985.000000	 89.106503 
982.500000	 88.161704 
980.000000	 86.673548 
977.500000	 85.244883 
975.000000	 83.733606 
972.500000	 82.745203 
970.000000	 81.144033 
967.500000	 79.179742 
965.000000	 77.664644 
962.500000	 76.223814 
960.000000	 74.408619 
957.500000	 72.753113 
955.000000	 71.467552 
952.500000	 69.790153 
950.000000	 68.708711 
947.500000	 68.400755 
945.000000	 66.589614 
942.500000	 65.170053 
940.000000	 65.514624 
937.500000	 65.579896 
935.000000	 65.874565 
932.500000	 66.118260 
930.000000	 66.435648 
927.500000	 67.345947 
925.000000	 68.645625 
922.500000	 70.397033 
920.000000	 72.483130 
917.500000	 75.226118 
915.000000	 77.373682 
912.500000	 79.776194 
910.000000	 82.411787 
907.500000	 84.674423 
905.000000	 86.564699 
902.500000	 86.874146 
900.000000	 86.806519 
897.500000	 85.484398 
895.000000	 82.785704 
892.500000	 79.443976 
890.000000	 75.219440 
887.500000	 71.244577 
885.000000	 65.690946 
882.500000	 61.472681 
880.000000	 57.415891 
877.500000	 53.560798 
875.000000	 50.740380 
872.500000	 48.480923 
870.000000	 46.958768 
867.500000	 45.505920 
865.000000	 45.712511 
862.500000	 46.684719 
860.000000	 48.804086 
857.500000	 50.179241 
855.000000	 55.043373 
852.500000	 61.444263 
850.000000	 69.766270 
847.500000	 79.569651 
845.000000	 87.385975 
842.500000	 88.375550 
840.000000	 78.767642 
837.500000	 61.461253 
835.000000	 43.749824 
832.500000	 29.854982 
830.000000	 20.371099 
827.500000	 14.059472 
825.000000	 9.976133  
822.500000	 7.245520  
820.000000	 5.374831  
817.500000	 4.058085  
815.000000	 3.188495  
812.500000	 2.500563  
810.000000	 1.992233  
807.500000	 1.642433  
805.000000	 1.351199  
802.500000	 1.086436  
800.000000	 0.954069  
797.500000	 0.859590  
795.000000	 0.734631  
792.500000	 0.636082  
790.000000	 0.526864  
787.500000	 0.527012  
785.000000	 0.496235  
782.500000	 0.411476  
780.000000	 0.385948  
777.500000	 0.341046  
775.000000	 0.361000  
772.500000	 0.321416  
770.000000	 0.310156  
767.500000	 0.321743  
765.000000	 0.265169  
762.500000	 0.284827  
760.000000	 0.304869  
757.500000	 0.321797  
755.000000	 0.299189  
752.500000	 0.282175  
750.000000	 0.290509  
747.500000	 0.304645  
745.000000	 0.358686  
742.500000	 0.353336  
740.000000	 0.361387  
737.500000	 0.466101  
735.000000	 0.491678  
732.500000	 0.528472  
730.000000	 0.593522  
727.500000	 0.652542  
725.000000	 0.754215  
722.500000	 0.799638  
720.000000	 0.949528  
717.500000	 1.034190  
715.000000	 1.185189  
712.500000	 1.358042  
710.000000	 1.492874  
707.500000	 1.733401  
705.000000	 1.917583  
702.500000	 2.081860  
700.000000	 2.288588  
697.500000	 2.487491  
695.000000	 2.660597  
692.500000	 2.831683  
690.000000	 3.021301  
687.500000	 3.228088  
685.000000	 3.478236  
682.500000	 3.804670  
680.000000	 4.235800  
677.500000	 4.637393  
675.000000	 5.203376  
672.500000	 5.787744  
670.000000	 6.471987  
667.500000	 7.285236  
665.000000	 8.109179  
662.500000	 9.068773  
660.000000	 9.972801  
657.500000	 10.889657 
655.000000	 11.835543 
652.500000	 12.741793 
650.000000	 13.695134 
647.500000	 14.635806 
645.000000	 15.751559 
642.500000	 17.055339 
640.000000	 18.510855 
637.500000	 20.213248 
635.000000	 22.121985 
632.500000	 24.438959 
630.000000	 27.084573 
627.500000	 29.884373 
625.000000	 33.000821 
622.500000	 36.231596 
620.000000	 39.467044 
617.500000	 42.699943 
615.000000	 45.689899 
612.500000	 48.390846 
610.000000	 50.813722 
607.500000	 52.972390 
605.000000	 54.643211 
602.500000	 56.037221 
600.000000	 57.464317 
597.500000	 58.803486 
595.000000	 60.225822 
592.500000	 62.045099 
590.000000	 64.438957 
587.500000	 67.514621 
585.000000	 71.057787 
582.500000	 74.960960 
580.000000	 79.036473 
577.500000	 82.799397 
575.000000	 85.616049 
572.500000	 87.326305 
570.000000	 88.018092 
567.500000	 87.637284 
565.000000	 86.717348 
562.500000	 85.443362 
560.000000	 84.308139 
557.500000	 83.617864 
555.000000	 83.513097 
552.500000	 83.720333 
550.000000	 84.441652 
547.500000	 85.416012 
545.000000	 86.472050 
542.500000	 87.418884 
540.000000	 87.938878 
537.500000	 87.743006 
535.000000	 86.905683 
532.500000	 85.518725 
530.000000	 83.553386 
527.500000	 81.184369 
525.000000	 78.125268 
522.500000	 73.996274 
520.000000	 68.193515 
517.500000	 60.665451 
515.000000	 52.559668 
512.500000	 44.914729 
510.000000	 38.531521 
507.500000	 33.699704 
505.000000	 30.346204 
502.500000	 28.161325 
500.000000	 26.627251 
497.500000	 25.021769 
495.000000	 22.884604 
492.500000	 20.265094 
490.000000	 17.406710 
487.500000	 14.619655 
485.000000	 12.369241 
482.500000	 10.685938 
480.000000	 9.387288  
477.500000	 8.386826  
475.000000	 7.603204  
472.500000	 7.048065  
470.000000	 6.751946  
467.500000	 6.806776  
465.000000	 7.286688  
462.500000	 8.043920  
460.000000	 8.468626  
457.500000	 7.803689  
455.000000	 6.120326  
452.500000	 4.411643  
450.000000	 3.247933  
447.500000	 2.542044  
445.000000	 2.124944  
442.500000	 1.880242  
440.000000	 1.720017  
437.500000	 1.592861  
435.000000	 1.478969  
432.500000	 1.375993  
430.000000	 1.236042  
427.500000	 1.074582  
425.000000	 0.899075  
422.500000	 0.749396  
420.000000	 0.604967  
417.500000	 0.443877  
415.000000	 0.307820  
412.500000	 0.191257  
410.000000	 0.158175  
407.500000	 0.124882  
405.000000	 0.088681  
402.500000	 0.099725  
400.000000	 0.191072  
397.500000	 0.365509  
395.000000	 0.525747  
392.500000	 0.472898  
390.000000	 0.207348  
387.500000	 0.049802  
385.000000	 0.024886  
382.500000	 0.005526  
380.000000	 -0.013811 
377.500000	 -0.016562 
375.000000	 -0.024833 
372.500000	 0.035928  
370.000000	 0.041437  
367.500000	 0.019348  
365.000000	 -0.019351 
362.500000	 -0.022146 
360.000000	 0.000000  
357.500000	 -0.011053 
355.000000	 -0.019331 
352.500000	 -0.005522 
350.000000	 -0.019338 

