PE UV                   SPECTRUM    ASCII       PEDS        1.5         
  -1
BG-40H.SP
96/07/31
14:53:28.00
96/07/31
14:53:28.00
FINN POULSEN
BG-40 SCHOTT FARVEGLAS TYKKELSE 1MM. MRKH.
350.000000
1









4444

SCAN
1
1


0.0

2.00
MANUAL



UV/VIS




































#HDR
-1
-1
#GR
NM
%T
0.00002384185791015625
0.0
1100.000000
2.500000
301
8
90.893509
0.166177
#DATA
1100.000000	1.690668  
1097.500000	1.643196  
1095.000000	1.596627  
1092.500000	1.547840  
1090.000000	1.501153  
1087.500000	1.449311  
1085.000000	1.411697  
1082.500000	1.369314  
1080.000000	1.325772  
1077.500000	1.286396  
1075.000000	1.244959  
1072.500000	1.200347  
1070.000000	1.178475  
1067.500000	1.151505  
1065.000000	1.098213  
1062.500000	1.054188  
1060.000000	1.024501  
1057.500000	1.005827  
1055.000000	0.980525  
1052.500000	0.943317  
1050.000000	0.903928  
1047.500000	0.876731  
1045.000000	0.852436  
1042.500000	0.826116  
1040.000000	0.796444  
1037.500000	0.769887  
1035.000000	0.751848  
1032.500000	0.729134  
1030.000000	0.707010  
1027.500000	0.686102  
1025.000000	0.666899  
1022.500000	0.644936  
1020.000000	0.622723  
1017.500000	0.604533  
1015.000000	0.584483  
1012.500000	0.568624  
1010.000000	0.553919  
1007.500000	0.537721  
1005.000000	0.520645  
1002.500000	0.505113  
1000.000000	0.488930  
997.500000	 0.471370  
995.000000	 0.459080  
992.500000	 0.445254  
990.000000	 0.428934  
987.500000	 0.416118  
985.000000	 0.403626  
982.500000	 0.393023  
980.000000	 0.380939  
977.500000	 0.364232  
975.000000	 0.353912  
972.500000	 0.345236  
970.000000	 0.337542  
967.500000	 0.330576  
965.000000	 0.325407  
962.500000	 0.313507  
960.000000	 0.301805  
957.500000	 0.291298  
955.000000	 0.283653  
952.500000	 0.276653  
950.000000	 0.265207  
947.500000	 0.255724  
945.000000	 0.249405  
942.500000	 0.244185  
940.000000	 0.243230  
937.500000	 0.237093  
935.000000	 0.234713  
932.500000	 0.230784  
930.000000	 0.224463  
927.500000	 0.218332  
925.000000	 0.215373  
922.500000	 0.210691  
920.000000	 0.207830  
917.500000	 0.203009  
915.000000	 0.205947  
912.500000	 0.197567  
910.000000	 0.197798  
907.500000	 0.185726  
905.000000	 0.189121  
902.500000	 0.185064  
900.000000	 0.184609  
897.500000	 0.172101  
895.000000	 0.183657  
892.500000	 0.173194  
890.000000	 0.169722  
887.500000	 0.170318  
885.000000	 0.170809  
882.500000	 0.179792  
880.000000	 0.175592  
877.500000	 0.180684  
875.000000	 0.174583  
872.500000	 0.178737  
870.000000	 0.173351  
867.500000	 0.173734  
865.000000	 0.185768  
862.500000	 0.182581  
860.000000	 0.166177  
857.500000	 0.170912  
855.000000	 0.175457  
852.500000	 0.177686  
850.000000	 0.190216  
847.500000	 0.188785  
845.000000	 0.188890  
842.500000	 0.198490  
840.000000	 0.203417  
837.500000	 0.208532  
835.000000	 0.214344  
832.500000	 0.222305  
830.000000	 0.232070  
827.500000	 0.239345  
825.000000	 0.249183  
822.500000	 0.256659  
820.000000	 0.271339  
817.500000	 0.284529  
815.000000	 0.295958  
812.500000	 0.311051  
810.000000	 0.329508  
807.500000	 0.344531  
805.000000	 0.365384  
802.500000	 0.388772  
800.000000	 0.412763  
797.500000	 0.437133  
795.000000	 0.464487  
792.500000	 0.493700  
790.000000	 0.531765  
787.500000	 0.567480  
785.000000	 0.613331  
782.500000	 0.659265  
780.000000	 0.710311  
777.500000	 0.761463  
775.000000	 0.822174  
772.500000	 0.889686  
770.000000	 0.961283  
767.500000	 1.044247  
765.000000	 1.137399  
762.500000	 1.229585  
760.000000	 1.336306  
757.500000	 1.455105  
755.000000	 1.584358  
752.500000	 1.723447  
750.000000	 1.877769  
747.500000	 2.052022  
745.000000	 2.244945  
742.500000	 2.447320  
740.000000	 2.665446  
737.500000	 2.909813  
735.000000	 3.187316  
732.500000	 3.486375  
730.000000	 3.796839  
727.500000	 4.140063  
725.000000	 4.530305  
722.500000	 4.940337  
720.000000	 5.398946  
717.500000	 5.885583  
715.000000	 6.411790  
712.500000	 6.968971  
710.000000	 7.577885  
707.500000	 8.219961  
705.000000	 8.926913  
702.500000	 9.673998  
700.000000	 10.489436 
697.500000	 11.353522 
695.000000	 12.255756 
692.500000	 13.220669 
690.000000	 14.243038 
687.500000	 15.313995 
685.000000	 16.436751 
682.500000	 17.662408 
680.000000	 18.915490 
677.500000	 20.222808 
675.000000	 21.587266 
672.500000	 23.012619 
670.000000	 24.487615 
667.500000	 25.977748 
665.000000	 27.567749 
662.500000	 29.196577 
660.000000	 30.842942 
657.500000	 32.556286 
655.000000	 34.301083 
652.500000	 36.058117 
650.000000	 37.910569 
647.500000	 39.778378 
645.000000	 41.599876 
642.500000	 43.438108 
640.000000	 45.310468 
637.500000	 47.170851 
635.000000	 49.044200 
632.500000	 50.895143 
630.000000	 52.711829 
627.500000	 54.512899 
625.000000	 56.349121 
622.500000	 58.157613 
620.000000	 59.851075 
617.500000	 61.665202 
615.000000	 63.330036 
612.500000	 64.883718 
610.000000	 66.448220 
607.500000	 68.035066 
605.000000	 69.508923 
602.500000	 70.940463 
600.000000	 72.297388 
597.500000	 73.683515 
595.000000	 74.887486 
592.500000	 76.093014 
590.000000	 77.154073 
587.500000	 78.285887 
585.000000	 79.348088 
582.500000	 80.324002 
580.000000	 81.156268 
577.500000	 82.085431 
575.000000	 82.953398 
572.500000	 83.679252 
570.000000	 84.368826 
567.500000	 85.039221 
565.000000	 85.759043 
562.500000	 86.261906 
560.000000	 86.744285 
557.500000	 87.213932 
555.000000	 87.592485 
552.500000	 87.984321 
550.000000	 88.376947 
547.500000	 88.648490 
545.000000	 88.870420 
542.500000	 89.161204 
540.000000	 89.403900 
537.500000	 89.619281 
535.000000	 89.922738 
532.500000	 90.033227 
530.000000	 90.098765 
527.500000	 90.255390 
525.000000	 90.359384 
522.500000	 90.366659 
520.000000	 90.500775 
517.500000	 90.667995 
515.000000	 90.676769 
512.500000	 90.726835 
510.000000	 90.774556 
507.500000	 90.793210 
505.000000	 90.840283 
502.500000	 90.833921 
500.000000	 90.878715 
497.500000	 90.893509 
495.000000	 90.846358 
492.500000	 90.889803 
490.000000	 90.871388 
487.500000	 90.785648 
485.000000	 90.785622 
482.500000	 90.730411 
480.000000	 90.780331 
477.500000	 90.751977 
475.000000	 90.673941 
472.500000	 90.714895 
470.000000	 90.682611 
467.500000	 90.630961 
465.000000	 90.610088 
462.500000	 90.506434 
460.000000	 90.539526 
457.500000	 90.442633 
455.000000	 90.388231 
452.500000	 90.369158 
450.000000	 90.349586 
447.500000	 90.223500 
445.000000	 90.201083 
442.500000	 90.119965 
440.000000	 90.071348 
437.500000	 90.116772 
435.000000	 90.070969 
432.500000	 90.034168 
430.000000	 89.922753 
427.500000	 89.769017 
425.000000	 89.774116 
422.500000	 89.759934 
420.000000	 89.567214 
417.500000	 89.550890 
415.000000	 89.520116 
412.500000	 89.422224 
410.000000	 89.310060 
407.500000	 89.250975 
405.000000	 89.255926 
402.500000	 89.110062 
400.000000	 88.866775 
397.500000	 88.810648 
395.000000	 88.714093 
392.500000	 88.587070 
390.000000	 88.503613 
387.500000	 88.313737 
385.000000	 88.115132 
382.500000	 87.996175 
380.000000	 87.778784 
377.500000	 87.542771 
375.000000	 87.251035 
372.500000	 87.143258 
370.000000	 86.723538 
367.500000	 86.330733 
365.000000	 86.106015 
362.500000	 85.809264 
360.000000	 85.287029 
357.500000	 84.762181 
355.000000	 84.106438 
352.500000	 83.426374 
350.000000	 82.486949 

