PE UV                   SPECTRUM    ASCII       PEDS        1.5         
  -1
BG-40D.SP
96/07/31
14:37:08.00
96/07/31
14:37:08.00
FINN POULSEN
BG-40 SCHOTT FARVEGLAS TYKKELSE 1MM. MRK.D
350.000000
1









4444

SCAN
1
1


0.0

2.00
MANUAL



UV/VIS




































#HDR
-1
-1
#GR
NM
%T
0.00002384185791015625
0.0
1100.000000
2.500000
301
8
90.797377
0.160456
#DATA
1100.000000	1.696144  
1097.500000	1.646955  
1095.000000	1.582286  
1092.500000	1.541007  
1090.000000	1.510321  
1087.500000	1.456564  
1085.000000	1.401466  
1082.500000	1.365621  
1080.000000	1.334154  
1077.500000	1.284292  
1075.000000	1.253992  
1072.500000	1.207207  
1070.000000	1.176435  
1067.500000	1.138710  
1065.000000	1.094361  
1062.500000	1.064222  
1060.000000	1.029614  
1057.500000	1.000876  
1055.000000	0.978423  
1052.500000	0.943285  
1050.000000	0.909396  
1047.500000	0.888334  
1045.000000	0.860673  
1042.500000	0.830413  
1040.000000	0.800127  
1037.500000	0.769951  
1035.000000	0.746943  
1032.500000	0.725426  
1030.000000	0.707010  
1027.500000	0.687972  
1025.000000	0.668414  
1022.500000	0.646706  
1020.000000	0.627386  
1017.500000	0.610096  
1015.000000	0.589208  
1012.500000	0.571645  
1010.000000	0.554593  
1007.500000	0.537657  
1005.000000	0.521639  
1002.500000	0.506426  
1000.000000	0.491234  
997.500000	 0.474569  
995.000000	 0.459719  
992.500000	 0.445700  
990.000000	 0.431166  
987.500000	 0.418731  
985.000000	 0.406363  
982.500000	 0.395089  
980.000000	 0.381986  
977.500000	 0.368104  
975.000000	 0.356924  
972.500000	 0.346439  
970.000000	 0.340831  
967.500000	 0.333291  
965.000000	 0.324524  
962.500000	 0.312940  
960.000000	 0.298878  
957.500000	 0.288562  
955.000000	 0.283433  
952.500000	 0.278758  
950.000000	 0.267092  
947.500000	 0.260442  
945.000000	 0.253721  
942.500000	 0.247468  
940.000000	 0.236075  
937.500000	 0.230997  
935.000000	 0.237646  
932.500000	 0.235558  
930.000000	 0.226590  
927.500000	 0.223945  
925.000000	 0.218249  
922.500000	 0.212664  
920.000000	 0.210475  
917.500000	 0.207949  
915.000000	 0.208301  
912.500000	 0.204459  
910.000000	 0.193612  
907.500000	 0.185127  
905.000000	 0.183385  
902.500000	 0.185231  
900.000000	 0.181597  
897.500000	 0.177696  
895.000000	 0.189021  
892.500000	 0.186171  
890.000000	 0.174885  
887.500000	 0.167568  
885.000000	 0.173458  
882.500000	 0.181801  
880.000000	 0.189985  
877.500000	 0.179613  
875.000000	 0.167228  
872.500000	 0.178503  
870.000000	 0.160456  
867.500000	 0.168090  
865.000000	 0.176927  
862.500000	 0.173185  
860.000000	 0.175778  
857.500000	 0.168502  
855.000000	 0.180239  
852.500000	 0.180751  
850.000000	 0.187684  
847.500000	 0.195874  
845.000000	 0.201287  
842.500000	 0.203796  
840.000000	 0.209742  
837.500000	 0.211861  
835.000000	 0.219003  
832.500000	 0.226107  
830.000000	 0.230707  
827.500000	 0.238774  
825.000000	 0.249056  
822.500000	 0.258915  
820.000000	 0.269114  
817.500000	 0.283130  
815.000000	 0.299621  
812.500000	 0.316000  
810.000000	 0.335671  
807.500000	 0.349857  
805.000000	 0.368157  
802.500000	 0.392184  
800.000000	 0.415280  
797.500000	 0.439779  
795.000000	 0.469688  
792.500000	 0.500413  
790.000000	 0.534387  
787.500000	 0.574126  
785.000000	 0.617203  
782.500000	 0.661860  
780.000000	 0.708838  
777.500000	 0.767226  
775.000000	 0.830448  
772.500000	 0.896423  
770.000000	 0.968535  
767.500000	 1.047362  
765.000000	 1.134347  
762.500000	 1.235912  
760.000000	 1.345787  
757.500000	 1.460372  
755.000000	 1.591821  
752.500000	 1.738613  
750.000000	 1.887619  
747.500000	 2.057209  
745.000000	 2.250101  
742.500000	 2.453800  
740.000000	 2.674797  
737.500000	 2.927239  
735.000000	 3.199111  
732.500000	 3.494940  
730.000000	 3.818155  
727.500000	 4.160304  
725.000000	 4.545966  
722.500000	 4.969652  
720.000000	 5.421895  
717.500000	 5.899167  
715.000000	 6.424176  
712.500000	 6.983992  
710.000000	 7.597433  
707.500000	 8.242021  
705.000000	 8.931717  
702.500000	 9.700764  
700.000000	 10.519372 
697.500000	 11.380371 
695.000000	 12.282546 
692.500000	 13.236590 
690.000000	 14.262638 
687.500000	 15.338195 
685.000000	 16.477032 
682.500000	 17.692049 
680.000000	 18.951227 
677.500000	 20.241322 
675.000000	 21.612020 
672.500000	 23.030393 
670.000000	 24.519132 
667.500000	 26.022078 
665.000000	 27.595847 
662.500000	 29.235347 
660.000000	 30.886379 
657.500000	 32.599564 
655.000000	 34.327980 
652.500000	 36.118699 
650.000000	 37.950784 
647.500000	 39.808110 
645.000000	 41.608463 
642.500000	 43.498742 
640.000000	 45.319883 
637.500000	 47.174494 
635.000000	 49.047746 
632.500000	 50.916695 
630.000000	 52.763865 
627.500000	 54.561122 
625.000000	 56.313994 
622.500000	 58.144278 
620.000000	 59.871853 
617.500000	 61.609665 
615.000000	 63.298102 
612.500000	 64.837995 
610.000000	 66.350737 
607.500000	 67.930706 
605.000000	 69.466745 
602.500000	 70.942447 
600.000000	 72.314352 
597.500000	 73.690467 
595.000000	 74.898440 
592.500000	 76.090496 
590.000000	 77.118499 
587.500000	 78.208781 
585.000000	 79.303144 
582.500000	 80.232759 
580.000000	 81.118422 
577.500000	 82.024459 
575.000000	 82.835051 
572.500000	 83.586451 
570.000000	 84.342333 
567.500000	 85.008967 
565.000000	 85.675406 
562.500000	 86.136985 
560.000000	 86.625819 
557.500000	 87.091198 
555.000000	 87.565631 
552.500000	 88.007713 
550.000000	 88.290083 
547.500000	 88.554429 
545.000000	 88.766989 
542.500000	 89.137674 
540.000000	 89.388782 
537.500000	 89.568179 
535.000000	 89.773144 
532.500000	 89.882709 
530.000000	 89.988709 
527.500000	 90.146634 
525.000000	 90.222771 
522.500000	 90.349500 
520.000000	 90.444750 
517.500000	 90.546925 
515.000000	 90.621021 
512.500000	 90.653744 
510.000000	 90.657318 
507.500000	 90.655520 
505.000000	 90.675630 
502.500000	 90.710366 
500.000000	 90.772004 
497.500000	 90.797377 
495.000000	 90.751193 
492.500000	 90.796067 
490.000000	 90.780131 
487.500000	 90.707089 
485.000000	 90.718215 
482.500000	 90.677602 
480.000000	 90.704013 
477.500000	 90.663032 
475.000000	 90.596354 
472.500000	 90.566534 
470.000000	 90.521271 
467.500000	 90.518700 
465.000000	 90.541757 
462.500000	 90.440845 
460.000000	 90.411255 
457.500000	 90.335962 
455.000000	 90.315806 
452.500000	 90.273373 
450.000000	 90.189048 
447.500000	 90.193224 
445.000000	 90.145821 
442.500000	 90.037189 
440.000000	 89.980248 
437.500000	 89.982918 
435.000000	 89.886754 
432.500000	 89.811384 
430.000000	 89.777930 
427.500000	 89.674698 
425.000000	 89.619416 
422.500000	 89.554913 
420.000000	 89.456563 
417.500000	 89.498389 
415.000000	 89.437452 
412.500000	 89.299243 
410.000000	 89.196039 
407.500000	 89.135923 
405.000000	 89.076024 
402.500000	 88.971212 
400.000000	 88.820296 
397.500000	 88.758013 
395.000000	 88.658567 
392.500000	 88.457440 
390.000000	 88.336904 
387.500000	 88.243231 
385.000000	 88.040867 
382.500000	 87.885710 
380.000000	 87.680618 
377.500000	 87.472202 
375.000000	 87.252334 
372.500000	 87.022738 
370.000000	 86.835146 
367.500000	 86.429916 
365.000000	 86.116908 
362.500000	 85.736317 
360.000000	 85.164611 
357.500000	 84.581759 
355.000000	 83.907840 
352.500000	 83.238526 
350.000000	 82.289600 

