PE UV                   SPECTRUM    ASCII       PEDS        1.5         
  -1
X151424A.SP
96/07/30
13:30:15.00
96/07/30
13:30:15.00
FINN POULSEN
X-FILTER NO.1540X24. PRODUKTIONSUGE 23/96. MRK.A.
350.000000
1









4444

SCAN
1
1


0.0

2.00
MANUAL



UV/VIS




































#HDR
-1
-1
#GR
NM
%T
0.00002384185791015625
0.0
1100.000000
2.500000
301
8
92.022026
-0.041439
#DATA
1100.000000	91.038464 
1097.500000	90.801420 
1095.000000	90.743770 
1092.500000	88.859992 
1090.000000	88.428895 
1087.500000	89.270796 
1085.000000	89.366966 
1082.500000	90.809376 
1080.000000	90.018514 
1077.500000	89.250181 
1075.000000	90.555206 
1072.500000	90.213658 
1070.000000	88.105608 
1067.500000	88.492824 
1065.000000	89.901011 
1062.500000	90.159742 
1060.000000	89.819605 
1057.500000	88.450233 
1055.000000	89.032798 
1052.500000	90.644336 
1050.000000	90.308842 
1047.500000	90.121708 
1045.000000	89.074501 
1042.500000	89.441061 
1040.000000	90.907102 
1037.500000	90.798728 
1035.000000	89.882327 
1032.500000	90.466746 
1030.000000	91.466023 
1027.500000	91.114788 
1025.000000	90.157332 
1022.500000	90.879761 
1020.000000	91.939242 
1017.500000	91.053516 
1015.000000	90.377811 
1012.500000	90.308201 
1010.000000	90.180086 
1007.500000	90.086299 
1005.000000	89.296089 
1002.500000	89.652098 
1000.000000	89.757222 
997.500000	 89.722998 
995.000000	 90.037958 
992.500000	 89.036535 
990.000000	 87.769301 
987.500000	 88.547296 
985.000000	 88.262449 
982.500000	 87.456978 
980.000000	 88.162112 
977.500000	 88.803391 
975.000000	 88.493712 
972.500000	 88.508511 
970.000000	 87.644222 
967.500000	 87.130721 
965.000000	 87.486460 
962.500000	 88.498445 
960.000000	 89.050010 
957.500000	 89.315105 
955.000000	 89.363484 
952.500000	 89.747107 
950.000000	 90.214900 
947.500000	 90.636461 
945.000000	 90.944522 
942.500000	 90.583733 
940.000000	 91.382722 
937.500000	 91.795066 
935.000000	 92.022026 
932.500000	 92.012814 
930.000000	 91.382857 
927.500000	 90.752786 
925.000000	 90.342106 
922.500000	 90.191886 
920.000000	 89.918972 
917.500000	 89.303854 
915.000000	 88.600378 
912.500000	 87.484758 
910.000000	 86.475833 
907.500000	 85.577522 
905.000000	 84.891716 
902.500000	 83.191373 
900.000000	 83.527875 
897.500000	 83.406065 
895.000000	 82.758526 
892.500000	 82.539337 
890.000000	 82.192782 
887.500000	 82.228850 
885.000000	 81.554799 
882.500000	 82.339728 
880.000000	 83.408789 
877.500000	 83.554304 
875.000000	 84.119649 
872.500000	 84.579893 
870.000000	 84.419743 
867.500000	 84.195371 
865.000000	 83.322533 
862.500000	 81.320213 
860.000000	 79.103267 
857.500000	 75.513919 
855.000000	 70.781280 
852.500000	 65.145995 
850.000000	 58.874737 
847.500000	 52.692480 
845.000000	 46.180536 
842.500000	 40.127352 
840.000000	 34.613765 
837.500000	 29.659638 
835.000000	 25.306546 
832.500000	 21.533359 
830.000000	 18.332864 
827.500000	 15.688091 
825.000000	 13.334269 
822.500000	 11.411132 
820.000000	 9.882935  
817.500000	 8.577700  
815.000000	 7.482974  
812.500000	 6.417548  
810.000000	 5.594012  
807.500000	 4.916050  
805.000000	 4.270352  
802.500000	 3.884150  
800.000000	 3.554542  
797.500000	 3.150893  
795.000000	 2.828754  
792.500000	 2.597804  
790.000000	 2.420195  
787.500000	 2.243327  
785.000000	 1.996221  
782.500000	 1.908009  
780.000000	 1.828323  
777.500000	 1.671411  
775.000000	 1.570916  
772.500000	 1.525318  
770.000000	 1.508487  
767.500000	 1.419620  
765.000000	 1.348416  
762.500000	 1.345177  
760.000000	 1.394495  
757.500000	 1.383164  
755.000000	 1.253210  
752.500000	 1.309292  
750.000000	 1.382033  
747.500000	 1.379368  
745.000000	 1.386731  
742.500000	 1.419001  
740.000000	 1.550015  
737.500000	 1.624293  
735.000000	 1.684139  
732.500000	 1.797371  
730.000000	 1.936012  
727.500000	 2.135593  
725.000000	 2.271122  
722.500000	 2.489333  
720.000000	 2.842932  
717.500000	 3.094094  
715.000000	 3.411308  
712.500000	 3.827981  
710.000000	 4.379665  
707.500000	 4.945707  
705.000000	 5.546285  
702.500000	 6.290838  
700.000000	 7.091797  
697.500000	 8.024987  
695.000000	 8.931802  
692.500000	 9.940594  
690.000000	 11.075277 
687.500000	 12.258812 
685.000000	 13.601630 
682.500000	 15.181882 
680.000000	 16.900730 
677.500000	 18.787535 
675.000000	 20.904146 
672.500000	 23.380337 
670.000000	 26.159859 
667.500000	 29.211733 
665.000000	 32.688713 
662.500000	 36.490274 
660.000000	 40.423844 
657.500000	 44.457359 
655.000000	 48.336733 
652.500000	 52.108527 
650.000000	 55.461041 
647.500000	 58.520535 
645.000000	 61.259217 
642.500000	 63.531778 
640.000000	 65.566010 
637.500000	 67.485254 
635.000000	 69.290780 
632.500000	 70.950719 
630.000000	 72.487312 
627.500000	 73.958510 
625.000000	 75.577408 
622.500000	 77.234688 
620.000000	 78.766832 
617.500000	 80.187180 
615.000000	 81.449554 
612.500000	 82.431167 
610.000000	 82.784235 
607.500000	 82.486308 
605.000000	 81.390268 
602.500000	 79.573309 
600.000000	 77.035271 
597.500000	 74.014026 
595.000000	 70.867258 
592.500000	 68.015884 
590.000000	 65.403825 
587.500000	 63.173584 
585.000000	 61.459605 
582.500000	 59.989778 
580.000000	 58.658107 
577.500000	 57.161943 
575.000000	 55.381904 
572.500000	 53.149953 
570.000000	 50.348476 
567.500000	 46.878734 
565.000000	 42.985678 
562.500000	 38.860413 
560.000000	 34.910686 
557.500000	 31.350642 
555.000000	 28.348456 
552.500000	 25.770196 
550.000000	 23.550238 
547.500000	 21.678900 
545.000000	 19.809191 
542.500000	 17.549526 
540.000000	 14.636449 
537.500000	 11.386606 
535.000000	 8.420026  
532.500000	 5.891806  
530.000000	 4.026980  
527.500000	 2.800252  
525.000000	 2.063924  
522.500000	 1.590485  
520.000000	 1.232344  
517.500000	 0.999886  
515.000000	 0.915584  
512.500000	 0.858332  
510.000000	 0.809309  
507.500000	 0.776007  
505.000000	 0.880551  
502.500000	 1.064638  
500.000000	 1.288240  
497.500000	 1.752476  
495.000000	 2.609671  
492.500000	 4.116950  
490.000000	 6.754512  
487.500000	 10.691282 
485.000000	 14.786890 
482.500000	 17.163784 
480.000000	 17.488914 
477.500000	 17.225788 
475.000000	 17.327713 
472.500000	 17.759562 
470.000000	 18.270300 
467.500000	 19.028474 
465.000000	 20.583929 
462.500000	 23.551103 
460.000000	 28.463690 
457.500000	 35.301363 
455.000000	 42.532982 
452.500000	 47.331888 
450.000000	 48.476584 
447.500000	 47.726266 
445.000000	 47.284176 
442.500000	 47.708715 
440.000000	 47.896521 
437.500000	 45.976148 
435.000000	 40.852353 
432.500000	 33.927280 
430.000000	 27.806788 
427.500000	 24.354417 
425.000000	 23.550795 
422.500000	 24.546892 
420.000000	 26.074649 
417.500000	 26.299728 
415.000000	 21.794231 
412.500000	 12.539845 
410.000000	 5.494505  
407.500000	 2.650274  
405.000000	 1.876177  
402.500000	 2.290922  
400.000000	 5.571555  
397.500000	 11.067729 
395.000000	 10.091590 
392.500000	 4.524336  
390.000000	 4.467667  
387.500000	 7.431591  
385.000000	 8.829222  
382.500000	 4.890988  
380.000000	 2.604828  
377.500000	 1.565130  
375.000000	 0.444248  
372.500000	 0.069093  
370.000000	 0.000000  
367.500000	 0.027640  
365.000000	 0.022116  
362.500000	 0.008304  
360.000000	 -0.011061 
357.500000	 0.013816  
355.000000	 0.066280  
352.500000	 0.019329  
350.000000	 -0.041439 

