PE UV                   SPECTRUM    ASCII       PEDS        1.5         
  -1
X151424I.SP
96/07/30
14:56:29.00
96/07/30
14:56:29.00
FINN POULSEN
X-FILTER NO.1540X24. PRODUKTIONSUGE 23/96. MRK.I.
350.000000
1









4444

SCAN
1
1


0.0

2.00
MANUAL



UV/VIS




































#HDR
-1
-1
#GR
NM
%T
0.00002384185791015625
0.0
1100.000000
2.500000
301
8
92.222764
-0.049829
#DATA
1100.000000	90.791792 
1097.500000	90.535815 
1095.000000	90.395086 
1092.500000	88.664271 
1090.000000	90.150915 
1087.500000	90.291845 
1085.000000	88.514494 
1082.500000	89.903990 
1080.000000	89.852428 
1077.500000	88.713634 
1075.000000	89.759711 
1072.500000	89.941134 
1070.000000	89.651556 
1067.500000	87.787476 
1065.000000	88.291425 
1062.500000	90.209232 
1060.000000	90.208316 
1057.500000	89.278105 
1055.000000	88.170240 
1052.500000	89.239061 
1050.000000	90.762213 
1047.500000	90.837803 
1045.000000	90.532846 
1042.500000	89.386926 
1040.000000	89.961178 
1037.500000	91.168083 
1035.000000	91.034871 
1032.500000	90.097261 
1030.000000	90.602204 
1027.500000	91.681814 
1025.000000	91.148042 
1022.500000	90.093533 
1020.000000	90.549173 
1017.500000	91.495418 
1015.000000	91.652488 
1012.500000	90.630896 
1010.000000	90.108927 
1007.500000	89.827400 
1005.000000	89.562621 
1002.500000	90.157203 
1000.000000	89.350332 
997.500000	 89.096285 
995.000000	 89.532756 
992.500000	 88.690121 
990.000000	 88.491914 
987.500000	 88.892208 
985.000000	 87.776229 
982.500000	 86.951652 
980.000000	 88.067039 
977.500000	 89.000485 
975.000000	 88.598952 
972.500000	 88.511213 
970.000000	 87.755267 
967.500000	 87.008981 
965.000000	 87.481044 
962.500000	 89.157994 
960.000000	 89.379455 
957.500000	 89.780725 
955.000000	 90.244231 
952.500000	 89.935431 
950.000000	 90.759565 
947.500000	 91.564185 
945.000000	 90.845070 
942.500000	 90.139061 
940.000000	 91.493860 
937.500000	 92.022529 
935.000000	 92.222764 
932.500000	 91.830917 
930.000000	 91.101304 
927.500000	 90.801371 
925.000000	 90.266443 
922.500000	 89.350185 
920.000000	 89.051787 
917.500000	 88.850259 
915.000000	 88.673331 
912.500000	 87.498306 
910.000000	 86.731365 
907.500000	 84.951048 
905.000000	 84.252842 
902.500000	 82.828282 
900.000000	 83.228579 
897.500000	 82.740562 
895.000000	 82.473162 
892.500000	 82.759464 
890.000000	 82.054616 
887.500000	 82.204446 
885.000000	 82.752893 
882.500000	 82.837658 
880.000000	 83.224442 
877.500000	 83.830293 
875.000000	 84.524967 
872.500000	 84.965733 
870.000000	 85.100656 
867.500000	 84.036598 
865.000000	 83.036341 
862.500000	 80.698179 
860.000000	 77.727628 
857.500000	 73.242592 
855.000000	 68.066589 
852.500000	 61.791739 
850.000000	 55.661301 
847.500000	 49.145466 
845.000000	 42.926296 
842.500000	 37.184773 
840.000000	 31.970594 
837.500000	 27.170012 
835.000000	 23.145991 
832.500000	 19.720645 
830.000000	 16.817542 
827.500000	 14.270069 
825.000000	 12.219570 
822.500000	 10.516693 
820.000000	 9.092188  
817.500000	 7.888219  
815.000000	 6.877919  
812.500000	 5.981076  
810.000000	 5.233834  
807.500000	 4.578563  
805.000000	 4.031077  
802.500000	 3.628022  
800.000000	 3.278734  
797.500000	 2.990248  
795.000000	 2.730240  
792.500000	 2.471151  
790.000000	 2.284957  
787.500000	 2.108051  
785.000000	 1.939831  
782.500000	 1.848824  
780.000000	 1.724089  
777.500000	 1.600947  
775.000000	 1.565276  
772.500000	 1.491485  
770.000000	 1.435177  
767.500000	 1.391397  
765.000000	 1.337132  
762.500000	 1.333897  
760.000000	 1.340860  
757.500000	 1.321063  
755.000000	 1.261678  
752.500000	 1.306470  
750.000000	 1.376392  
747.500000	 1.376547  
745.000000	 1.420623  
742.500000	 1.469881  
740.000000	 1.516135  
737.500000	 1.627118  
735.000000	 1.737828  
732.500000	 1.873675  
730.000000	 2.037759  
727.500000	 2.194915  
725.000000	 2.415186  
722.500000	 2.622135  
720.000000	 2.941841  
717.500000	 3.218423  
715.000000	 3.592340  
712.500000	 4.082614  
710.000000	 4.605858  
707.500000	 5.203031  
705.000000	 5.896993  
702.500000	 6.627443  
700.000000	 7.470403  
697.500000	 8.386804  
695.000000	 9.350260  
692.500000	 10.370579 
690.000000	 11.471328 
687.500000	 12.722797 
685.000000	 14.153506 
682.500000	 15.716914 
680.000000	 17.506653 
677.500000	 19.495750 
675.000000	 21.762406 
672.500000	 24.374221 
670.000000	 27.292811 
667.500000	 30.573645 
665.000000	 34.262982 
662.500000	 38.172088 
660.000000	 42.290911 
657.500000	 46.382399 
655.000000	 50.325852 
652.500000	 54.020221 
650.000000	 57.366451 
647.500000	 60.344338 
645.000000	 62.870107 
642.500000	 65.022243 
640.000000	 67.000170 
637.500000	 68.832236 
635.000000	 70.442553 
632.500000	 71.943711 
630.000000	 73.332199 
627.500000	 74.769030 
625.000000	 76.283050 
622.500000	 77.850273 
620.000000	 79.254429 
617.500000	 80.598411 
615.000000	 81.778483 
612.500000	 82.538917 
610.000000	 82.625460 
607.500000	 82.086206 
605.000000	 80.663923 
602.500000	 78.498070 
600.000000	 75.732811 
597.500000	 72.676680 
595.000000	 69.570767 
592.500000	 66.660048 
590.000000	 64.263011 
587.500000	 62.358753 
585.000000	 60.721283 
582.500000	 59.217512 
580.000000	 57.851380 
577.500000	 56.351800 
575.000000	 54.415776 
572.500000	 51.859850 
570.000000	 48.775353 
567.500000	 45.191486 
565.000000	 41.294382 
562.500000	 37.223076 
560.000000	 33.386513 
557.500000	 29.951264 
555.000000	 27.035895 
552.500000	 24.520766 
550.000000	 22.502355 
547.500000	 20.662077 
545.000000	 18.658059 
542.500000	 16.231668 
540.000000	 13.271525 
537.500000	 10.155467 
535.000000	 7.351044  
532.500000	 5.096857  
530.000000	 3.559127  
527.500000	 2.519079  
525.000000	 1.857531  
522.500000	 1.427138  
520.000000	 1.163721  
517.500000	 0.999886  
515.000000	 0.881569  
512.500000	 0.824562  
510.000000	 0.820472  
507.500000	 0.845047  
505.000000	 0.981732  
502.500000	 1.140684  
500.000000	 1.445541  
497.500000	 2.040927  
495.000000	 3.050550  
492.500000	 4.943646  
490.000000	 8.088805  
487.500000	 12.234869 
485.000000	 15.671600 
482.500000	 16.982761 
480.000000	 16.992497 
477.500000	 16.952274 
475.000000	 17.327713 
472.500000	 17.977026 
470.000000	 18.743047 
467.500000	 19.924030 
465.000000	 21.951219 
462.500000	 25.579283 
460.000000	 31.233545 
457.500000	 38.419006 
455.000000	 44.832211 
452.500000	 48.006804 
450.000000	 48.052341 
447.500000	 47.264328 
445.000000	 47.323013 
442.500000	 48.116980 
440.000000	 47.910414 
437.500000	 44.878103 
435.000000	 38.747880 
432.500000	 31.661755 
430.000000	 26.267985 
427.500000	 23.657466 
425.000000	 23.278852 
422.500000	 24.186072 
420.000000	 25.319827 
417.500000	 24.926482 
415.000000	 19.550748 
412.500000	 10.491448 
410.000000	 4.559329  
407.500000	 2.403285  
405.000000	 1.909433  
402.500000	 2.612260  
400.000000	 7.022596  
397.500000	 12.396854 
395.000000	 9.006890  
392.500000	 4.327986  
390.000000	 5.012302  
387.500000	 8.408267  
385.000000	 9.022785  
382.500000	 4.412943  
380.000000	 2.585492  
377.500000	 1.476799  
375.000000	 0.347672  
372.500000	 0.030401  
370.000000	 -0.008287 
367.500000	 0.005528  
365.000000	 -0.019351 
362.500000	 -0.049829 
360.000000	 0.011061  
357.500000	 -0.002763 
355.000000	 -0.005523 
352.500000	 -0.022090 
350.000000	 -0.044202 

