PE UV                   SPECTRUM    ASCII       PEDS        1.5         
  -1
Y151524D.SP
96/07/30
15:20:35.00
96/07/30
15:20:35.00
FINN POULSEN
Y-FILTER NO.15150Y24. PRODUKTIONSUGE 19/96. MRK.D
350.000000
1









4444

SCAN
1
1


0.0

2.00
MANUAL



UV/VIS




































#HDR
-1
-1
#GR
NM
%T
0.00002384185791015625
0.0
1100.000000
2.500000
301
8
92.430732
-0.063541
#DATA
1100.000000	71.358868 
1097.500000	71.260536 
1095.000000	72.030147 
1092.500000	70.357659 
1090.000000	71.781786 
1087.500000	71.487073 
1085.000000	72.005593 
1082.500000	73.442927 
1080.000000	74.332934 
1077.500000	74.051605 
1075.000000	75.345124 
1072.500000	76.031503 
1070.000000	75.560574 
1067.500000	76.326243 
1065.000000	78.803915 
1062.500000	81.188309 
1060.000000	80.662998 
1057.500000	79.704986 
1055.000000	81.085904 
1052.500000	83.565712 
1050.000000	84.497444 
1047.500000	85.299643 
1045.000000	85.757640 
1042.500000	85.462173 
1040.000000	86.505549 
1037.500000	88.653214 
1035.000000	89.154263 
1032.500000	88.817648 
1030.000000	89.678056 
1027.500000	91.226023 
1025.000000	91.003060 
1022.500000	90.231801 
1020.000000	91.124941 
1017.500000	92.430732 
1015.000000	92.351940 
1012.500000	91.464982 
1010.000000	91.370627 
1007.500000	91.415857 
1005.000000	90.516804 
1002.500000	91.148506 
1000.000000	92.174148 
997.500000	 91.893431 
995.000000	 90.772549 
992.500000	 89.014884 
990.000000	 87.602750 
987.500000	 87.781429 
985.000000	 87.377420 
982.500000	 85.711554 
980.000000	 83.576900 
977.500000	 81.975268 
975.000000	 80.633061 
972.500000	 79.365036 
970.000000	 77.631222 
967.500000	 75.746672 
965.000000	 74.103661 
962.500000	 72.601702 
960.000000	 71.176279 
957.500000	 69.840281 
955.000000	 68.520019 
952.500000	 67.350013 
950.000000	 66.352091 
947.500000	 65.706580 
945.000000	 64.863993 
942.500000	 64.544817 
940.000000	 64.915562 
937.500000	 65.682796 
935.000000	 66.577148 
932.500000	 67.709181 
930.000000	 69.042720 
927.500000	 70.455342 
925.000000	 71.899151 
922.500000	 74.196865 
920.000000	 76.810926 
917.500000	 79.490452 
915.000000	 82.085922 
912.500000	 84.084320 
910.000000	 85.698363 
907.500000	 86.502318 
905.000000	 86.196534 
902.500000	 84.903084 
900.000000	 82.722498 
897.500000	 79.410320 
895.000000	 74.896045 
892.500000	 70.630757 
890.000000	 66.208820 
887.500000	 62.510845 
885.000000	 57.704560 
882.500000	 54.114686 
880.000000	 51.237563 
877.500000	 48.893338 
875.000000	 47.573497 
872.500000	 46.710916 
870.000000	 46.977607 
867.500000	 47.203982 
865.000000	 49.030725 
862.500000	 51.993457 
860.000000	 56.433609 
857.500000	 62.465692 
855.000000	 71.050784 
852.500000	 80.488146 
850.000000	 88.072778 
847.500000	 88.689342 
845.000000	 78.921596 
842.500000	 62.057841 
840.000000	 44.381155 
837.500000	 30.503532 
835.000000	 20.861977 
832.500000	 14.473610 
830.000000	 10.261456 
827.500000	 7.530957  
825.000000	 5.520146  
822.500000	 4.134672  
820.000000	 3.261481  
817.500000	 2.600326  
815.000000	 2.121911  
812.500000	 1.621986  
810.000000	 1.361922  
807.500000	 1.124954  
805.000000	 0.948654  
802.500000	 0.872526  
800.000000	 0.785207  
797.500000	 0.642579  
795.000000	 0.568565  
792.500000	 0.498170  
790.000000	 0.509959  
787.500000	 0.414282  
785.000000	 0.363718  
782.500000	 0.411476  
780.000000	 0.374679  
777.500000	 0.312861  
775.000000	 0.307414  
772.500000	 0.338333  
770.000000	 0.343991  
767.500000	 0.276586  
765.000000	 0.234139  
762.500000	 0.284827  
760.000000	 0.338743  
757.500000	 0.307683  
755.000000	 0.225803  
752.500000	 0.307570  
750.000000	 0.361021  
747.500000	 0.361061  
745.000000	 0.344564  
742.500000	 0.395737  
740.000000	 0.463028  
737.500000	 0.485875  
735.000000	 0.511458  
732.500000	 0.616080  
730.000000	 0.706573  
727.500000	 0.796610  
725.000000	 0.872856  
722.500000	 0.988951  
720.000000	 1.201039  
717.500000	 1.257417  
715.000000	 1.408649  
712.500000	 1.621162  
710.000000	 1.829337  
707.500000	 2.007691  
705.000000	 2.095766  
702.500000	 2.279863  
700.000000	 2.480716  
697.500000	 2.716454  
695.000000	 2.830242  
692.500000	 3.024045  
690.000000	 3.307024  
687.500000	 3.525151  
685.000000	 3.882945  
682.500000	 4.348195  
680.000000	 4.867206  
677.500000	 5.402266  
675.000000	 6.123951  
672.500000	 6.911881  
670.000000	 7.757888  
667.500000	 8.720765  
665.000000	 9.742907  
662.500000	 10.812876 
660.000000	 11.774705 
657.500000	 12.740984 
655.000000	 13.787827 
652.500000	 14.863066 
650.000000	 15.974821 
647.500000	 17.114817 
645.000000	 18.530913 
642.500000	 20.118443 
640.000000	 21.889348 
637.500000	 24.013157 
635.000000	 26.445390 
632.500000	 29.137231 
630.000000	 32.043321 
627.500000	 35.067732 
625.000000	 38.283220 
622.500000	 41.488184 
620.000000	 44.547129 
617.500000	 47.325581 
615.000000	 49.832700 
612.500000	 52.079848 
610.000000	 53.836121 
607.500000	 55.182883 
605.000000	 56.433536 
602.500000	 57.591920 
600.000000	 58.840555 
597.500000	 60.359465 
595.000000	 62.259922 
592.500000	 64.722734 
590.000000	 67.960724 
587.500000	 71.699505 
585.000000	 75.689336 
582.500000	 79.801822 
580.000000	 83.402454 
577.500000	 86.119559 
575.000000	 87.625028 
572.500000	 87.971356 
570.000000	 87.437772 
567.500000	 86.319922 
565.000000	 85.137097 
562.500000	 84.005353 
560.000000	 83.385088 
557.500000	 83.261606 
555.000000	 83.650059 
552.500000	 84.384984 
550.000000	 85.392456 
547.500000	 86.521378 
545.000000	 87.423234 
542.500000	 87.859123 
540.000000	 87.498211 
537.500000	 86.351533 
535.000000	 84.690339 
532.500000	 82.677572 
530.000000	 80.278415 
527.500000	 77.179089 
525.000000	 73.011322 
522.500000	 67.301905 
520.000000	 59.867330 
517.500000	 51.820305 
515.000000	 44.183343 
512.500000	 37.820115 
510.000000	 33.042167 
507.500000	 29.698158 
505.000000	 27.600634 
502.500000	 26.083650 
500.000000	 24.590475 
497.500000	 22.681506 
495.000000	 20.236595 
492.500000	 17.561795 
490.000000	 14.840549 
487.500000	 12.576346 
485.000000	 10.864121 
482.500000	 9.505110  
480.000000	 8.408400  
477.500000	 7.493720  
475.000000	 6.930527  
472.500000	 6.641017  
470.000000	 6.640711  
467.500000	 7.103446  
465.000000	 7.894373  
462.500000	 8.489735  
460.000000	 7.917397  
457.500000	 6.235287  
455.000000	 4.453385  
452.500000	 3.234656  
450.000000	 2.526170  
447.500000	 2.046913  
445.000000	 1.830892  
442.500000	 1.777481  
440.000000	 1.628320  
437.500000	 1.503905  
435.000000	 1.395568  
432.500000	 1.300939  
430.000000	 1.144380  
427.500000	 0.924640  
425.000000	 0.754779  
422.500000	 0.621721  
420.000000	 0.482863  
417.500000	 0.313488  
415.000000	 0.221852  
412.500000	 0.221747  
410.000000	 0.160950  
407.500000	 0.094355  
405.000000	 0.108081  
402.500000	 0.191141  
400.000000	 0.348914  
397.500000	 0.481807  
395.000000	 0.525747  
392.500000	 0.309734  
390.000000	 0.116115  
387.500000	 0.000000  
385.000000	 -0.024886 
382.500000	 0.027632  
380.000000	 0.008286  
377.500000	 -0.002760 
375.000000	 0.030352  
372.500000	 0.019346  
370.000000	 -0.008287 
367.500000	 0.038696  
365.000000	 0.030410  
362.500000	 -0.013841 
360.000000	 -0.027654 
357.500000	 -0.002763 
355.000000	 0.044186  
352.500000	 -0.008284 
350.000000	 -0.063541 

