PE UV                   SPECTRUM    ASCII       PEDS        1.5         
  -1
Z151624A.SP
96/07/31
13:09:20.00
96/07/31
13:09:20.00
FINN POULSEN
Z-FILTER NO.15160Y24. PRODUKTIONSUGE 26/96. MRK.A
350.000000
1









4444

SCAN
1
1


0.0

2.00
MANUAL



UV/VIS




































#HDR
-1
-1
#GR
NM
%T
0.00002384185791015625
0.0
1100.000000
2.500000
301
8
85.021166
-0.022405
#DATA
1100.000000	46.340743 
1097.500000	45.176508 
1095.000000	44.116465 
1092.500000	42.788964 
1090.000000	41.794363 
1087.500000	39.555065 
1085.000000	39.957018 
1082.500000	40.694377 
1080.000000	39.183804 
1077.500000	36.662033 
1075.000000	35.196964 
1072.500000	33.284398 
1070.000000	34.110646 
1067.500000	33.294023 
1065.000000	32.839307 
1062.500000	32.038052 
1060.000000	31.295378 
1057.500000	30.375838 
1055.000000	29.622244 
1052.500000	29.246740 
1050.000000	28.203216 
1047.500000	27.485210 
1045.000000	27.404129 
1042.500000	27.515985 
1040.000000	27.463538 
1037.500000	25.923638 
1035.000000	25.302884 
1032.500000	24.221100 
1030.000000	23.589840 
1027.500000	25.329133 
1025.000000	25.835620 
1022.500000	24.000000 
1020.000000	23.502217 
1017.500000	24.337517 
1015.000000	25.196324 
1012.500000	25.244607 
1010.000000	23.332084 
1007.500000	23.334224 
1005.000000	25.355897 
1002.500000	25.185500 
1000.000000	23.913392 
997.500000	 23.898359 
995.000000	 24.402156 
992.500000	 24.772400 
990.000000	 24.678384 
987.500000	 24.712306 
985.000000	 25.386788 
982.500000	 26.038039 
980.000000	 26.389148 
977.500000	 27.002430 
975.000000	 27.114140 
972.500000	 27.152194 
970.000000	 27.416225 
967.500000	 28.238769 
965.000000	 28.873202 
962.500000	 29.207472 
960.000000	 29.763240 
957.500000	 29.884351 
955.000000	 30.501971 
952.500000	 31.015843 
950.000000	 31.559793 
947.500000	 32.627220 
945.000000	 32.263828 
942.500000	 32.487877 
940.000000	 31.714415 
937.500000	 32.452090 
935.000000	 33.319016 
932.500000	 33.110457 
930.000000	 33.071476 
927.500000	 33.207597 
925.000000	 33.155265 
922.500000	 32.820540 
920.000000	 32.369201 
917.500000	 32.060658 
915.000000	 31.734773 
912.500000	 31.402406 
910.000000	 30.798632 
907.500000	 30.429411 
905.000000	 30.261459 
902.500000	 29.612357 
900.000000	 28.414522 
897.500000	 27.907226 
895.000000	 27.301978 
892.500000	 26.322584 
890.000000	 25.498491 
887.500000	 24.496382 
885.000000	 24.163269 
882.500000	 23.226599 
880.000000	 22.418068 
877.500000	 21.228422 
875.000000	 20.267194 
872.500000	 19.442732 
870.000000	 17.906659 
867.500000	 16.452791 
865.000000	 15.510509 
862.500000	 14.520124 
860.000000	 13.167765 
857.500000	 11.341658 
855.000000	 10.281124 
852.500000	 9.346806  
850.000000	 8.419387  
847.500000	 7.685693  
845.000000	 6.945137  
842.500000	 6.141373  
840.000000	 5.499360  
837.500000	 4.911061  
835.000000	 4.411232  
832.500000	 3.969491  
830.000000	 3.566754  
827.500000	 3.205413  
825.000000	 2.881563  
822.500000	 2.601929  
820.000000	 2.367144  
817.500000	 2.160579  
815.000000	 1.937768  
812.500000	 1.743326  
810.000000	 1.585178  
807.500000	 1.467230  
805.000000	 1.343628  
802.500000	 1.218526  
800.000000	 1.142124  
797.500000	 1.009031  
795.000000	 0.931971  
792.500000	 0.886658  
790.000000	 0.803235  
787.500000	 0.772190  
785.000000	 0.675166  
782.500000	 0.679571  
780.000000	 0.643758  
777.500000	 0.571205  
775.000000	 0.504276  
772.500000	 0.509933  
770.000000	 0.521297  
767.500000	 0.482337  
765.000000	 0.401920  
762.500000	 0.390505  
760.000000	 0.362409  
757.500000	 0.343297  
755.000000	 0.343316  
752.500000	 0.340430  
750.000000	 0.315246  
747.500000	 0.312377  
745.000000	 0.279126  
742.500000	 0.273551  
740.000000	 0.304248  
737.500000	 0.245508  
735.000000	 0.214909  
732.500000	 0.231681  
730.000000	 0.262284  
727.500000	 0.265103  
725.000000	 0.242650  
722.500000	 0.195301  
720.000000	 0.253800  
717.500000	 0.217573  
715.000000	 0.153494  
712.500000	 0.139458  
710.000000	 0.206358  
707.500000	 0.206588  
705.000000	 0.128441  
702.500000	 0.131273  
700.000000	 0.161848  
697.500000	 0.181473  
695.000000	 0.106157  
692.500000	 0.131101  
690.000000	 0.122689  
687.500000	 0.125474  
685.000000	 0.172991  
682.500000	 0.248201  
680.000000	 0.167490  
677.500000	 0.220362  
675.000000	 0.181346  
672.500000	 0.220374  
670.000000	 0.248374  
667.500000	 0.217980  
665.000000	 0.326980  
662.500000	 0.271048  
660.000000	 0.231966  
657.500000	 0.198412  
655.000000	 0.139746  
652.500000	 0.148177  
650.000000	 0.097809  
647.500000	 0.072721  
645.000000	 0.081134  
642.500000	 0.067140  
640.000000	 0.095051  
637.500000	 0.011195  
635.000000	 0.050389  
632.500000	 0.086727  
630.000000	 0.044780  
627.500000	 0.019607  
625.000000	 -0.022405 
622.500000	 0.064432  
620.000000	 0.058808  
617.500000	 0.005602  
615.000000	 0.036407  
612.500000	 0.016809  
610.000000	 0.050434  
607.500000	 0.016818  
605.000000	 0.022433  
602.500000	 0.078567  
600.000000	 0.011220  
597.500000	 0.025244  
595.000000	 0.036468  
592.500000	 0.064496  
590.000000	 0.064514  
587.500000	 -0.005612 
585.000000	 0.025265  
582.500000	 0.053342  
580.000000	 0.053345  
577.500000	 0.025279  
575.000000	 0.000000  
572.500000	 0.073087  
570.000000	 0.109609  
567.500000	 0.078733  
565.000000	 0.050674  
562.500000	 0.011260  
560.000000	 0.028169  
557.500000	 0.084547  
555.000000	 0.124031  
552.500000	 0.132588  
550.000000	 0.138203  
547.500000	 0.163698  
545.000000	 0.228677  
542.500000	 0.214907  
540.000000	 0.291437  
537.500000	 0.410474  
535.000000	 0.481640  
532.500000	 0.646057  
530.000000	 0.797185  
527.500000	 1.115083  
525.000000	 1.468920  
522.500000	 1.924384  
520.000000	 2.442471  
517.500000	 3.018516  
515.000000	 3.729753  
512.500000	 4.409882  
510.000000	 5.150344  
507.500000	 6.006440  
505.000000	 6.930666  
502.500000	 8.075735  
500.000000	 9.301764  
497.500000	 10.771881 
495.000000	 12.415998 
492.500000	 14.147059 
490.000000	 16.039544 
487.500000	 17.851552 
485.000000	 19.779312 
482.500000	 21.877497 
480.000000	 24.333719 
477.500000	 27.503935 
475.000000	 31.517810 
472.500000	 36.861394 
470.000000	 43.494894 
467.500000	 51.348755 
465.000000	 59.934426 
462.500000	 68.085743 
460.000000	 74.760313 
457.500000	 79.354488 
455.000000	 81.951748 
452.500000	 83.257771 
450.000000	 83.844519 
447.500000	 84.354913 
445.000000	 84.742318 
442.500000	 84.977184 
440.000000	 85.021166 
437.500000	 84.605440 
435.000000	 83.693441 
432.500000	 82.176148 
430.000000	 79.886638 
427.500000	 76.738107 
425.000000	 72.266527 
422.500000	 66.344251 
420.000000	 59.022659 
417.500000	 50.724557 
415.000000	 42.021773 
412.500000	 33.771122 
410.000000	 26.321141 
407.500000	 19.543293 
405.000000	 13.583910 
402.500000	 8.721424  
400.000000	 5.156618  
397.500000	 2.945370  
395.000000	 1.670965  
392.500000	 1.033698  
390.000000	 0.676823  
387.500000	 0.427373  
385.000000	 0.347716  
382.500000	 0.241069  
380.000000	 0.194515  
377.500000	 0.213254  
375.000000	 0.161114  
372.500000	 0.101325  
370.000000	 0.079465  
367.500000	 0.052063  
365.000000	 0.068444  
362.500000	 0.030101  
360.000000	 0.021902  
357.500000	 0.041063  
355.000000	 0.027352  
352.500000	 0.060188  
350.000000	 -0.013685 

