PE UV                   SPECTRUM    ASCII       PEDS        1.60        
  -1
13AN004T.SP
05/06/16
08:04:11.00
05/06/16
08:10:59.00

y filter testkit,6 grader indf
350.000000
1









4444

SCAN
1
1


0.0

2.00
MANUAL



VIS




































#HDR
-1
-1
#GR
NM
%T
0.00002384185791015625
0.0
800.000000
2.000000
226
8
80.512238
-0.000028
#DATA
800.000000	1.310914  
798.000000	1.162343  
796.000000	1.030099  
794.000000	0.925817  
792.000000	0.837316  
790.000000	0.758297  
788.000000	0.694906  
786.000000	0.639513  
784.000000	0.594320  
782.000000	0.556395  
780.000000	0.522606  
778.000000	0.492904  
776.000000	0.468774  
774.000000	0.447879  
772.000000	0.431153  
770.000000	0.416545  
768.000000	0.405842  
766.000000	0.397295  
764.000000	0.389817  
762.000000	0.387199  
760.000000	0.386042  
758.000000	0.385600  
756.000000	0.390521  
754.000000	0.394134  
752.000000	0.403342  
750.000000	0.413085  
748.000000	0.425981  
746.000000	0.442902  
744.000000	0.461186  
742.000000	0.484288  
740.000000	0.512112  
738.000000	0.543884  
736.000000	0.580237  
734.000000	0.622016  
732.000000	0.670612  
730.000000	0.723853  
728.000000	0.784506  
726.000000	0.854266  
724.000000	0.928586  
722.000000	1.010166  
720.000000	1.100178  
718.000000	1.192957  
716.000000	1.290495  
714.000000	1.385865  
712.000000	1.485916  
710.000000	1.581822  
708.000000	1.676572  
706.000000	1.766317  
704.000000	1.848477  
702.000000	1.930569  
700.000000	2.012093  
698.000000	2.090868  
696.000000	2.175907  
694.000000	2.266235  
692.000000	2.367708  
690.000000	2.488996  
688.000000	2.627701  
686.000000	2.792255  
684.000000	2.976992  
682.000000	3.200618  
680.000000	3.461738  
678.000000	3.770730  
676.000000	4.123990  
674.000000	4.543088  
672.000000	5.027348  
670.000000	5.577526  
668.000000	6.187945  
666.000000	6.877525  
664.000000	7.637309  
662.000000	8.450336  
660.000000	9.301573  
658.000000	10.184728 
656.000000	11.100250 
654.000000	12.027721 
652.000000	12.961439 
650.000000	13.911396 
648.000000	14.952081 
646.000000	16.038393 
644.000000	17.195986 
642.000000	18.469530 
640.000000	19.843691 
638.000000	21.391326 
636.000000	23.106423 
634.000000	24.923850 
632.000000	26.790773 
630.000000	28.668876 
628.000000	30.623039 
626.000000	32.445680 
624.000000	34.106648 
622.000000	35.641335 
620.000000	36.981424 
618.000000	38.141664 
616.000000	39.214006 
614.000000	40.262415 
612.000000	41.327245 
610.000000	42.491466 
608.000000	43.813330 
606.000000	45.287250 
604.000000	46.937335 
602.000000	48.830054 
600.000000	50.944991 
598.000000	53.304298 
596.000000	55.710773 
594.000000	58.335764 
592.000000	61.012714 
590.000000	63.489452 
588.000000	65.901480 
586.000000	68.068112 
584.000000	69.869340 
582.000000	71.181517 
580.000000	72.131631 
578.000000	72.702284 
576.000000	72.887662 
574.000000	72.810339 
572.000000	72.694258 
570.000000	72.795284 
568.000000	73.039426 
566.000000	73.499106 
564.000000	74.241175 
562.000000	75.401606 
560.000000	76.838282 
558.000000	78.138893 
556.000000	79.174052 
554.000000	80.035643 
552.000000	80.512238 
550.000000	80.498901 
548.000000	80.133342 
546.000000	79.364628 
544.000000	78.515318 
542.000000	77.646866 
540.000000	76.685445 
538.000000	75.558770 
536.000000	74.486407 
534.000000	73.321499 
532.000000	71.787289 
530.000000	69.817425 
528.000000	67.516381 
526.000000	65.124407 
524.000000	62.501055 
522.000000	59.527588 
520.000000	56.214217 
518.000000	52.490333 
516.000000	48.610255 
514.000000	44.429711 
512.000000	40.248300 
510.000000	36.351813 
508.000000	32.955078 
506.000000	30.117610 
504.000000	27.882504 
502.000000	26.191894 
500.000000	24.812706 
498.000000	23.622881 
496.000000	22.438350 
494.000000	21.081523 
492.000000	19.560661 
490.000000	17.892092 
488.000000	16.236579 
486.000000	14.694175 
484.000000	13.353438 
482.000000	12.179314 
480.000000	11.120279 
478.000000	10.180488 
476.000000	9.306665  
474.000000	8.505459  
472.000000	7.805837  
470.000000	7.245918  
468.000000	6.899601  
466.000000	6.738214  
464.000000	6.725590  
462.000000	6.726123  
460.000000	6.565115  
458.000000	6.074087  
456.000000	5.267331  
454.000000	4.350667  
452.000000	3.535250  
450.000000	2.917783  
448.000000	2.495553  
446.000000	2.233861  
444.000000	2.070088  
442.000000	1.967182  
440.000000	1.894194  
438.000000	1.818931  
436.000000	1.736022  
434.000000	1.644606  
432.000000	1.551547  
430.000000	1.452547  
428.000000	1.330155  
426.000000	1.178062  
424.000000	1.000563  
422.000000	0.812239  
420.000000	0.633331  
418.000000	0.476391  
416.000000	0.346842  
414.000000	0.247991  
412.000000	0.179089  
410.000000	0.133827  
408.000000	0.106484  
406.000000	0.092958  
404.000000	0.090129  
402.000000	0.098516  
400.000000	0.122944  
398.000000	0.172170  
396.000000	0.250445  
394.000000	0.327323  
392.000000	0.286501  
390.000000	0.145739  
388.000000	0.053738  
386.000000	0.020581  
384.000000	0.009670  
382.000000	0.005986  
380.000000	0.004931  
378.000000	0.005624  
376.000000	0.009096  
374.000000	0.020117  
372.000000	0.025262  
370.000000	0.014720  
368.000000	0.007699  
366.000000	0.004332  
364.000000	0.002371  
362.000000	0.001194  
360.000000	0.000583  
358.000000	0.000303  
356.000000	0.000147  
354.000000	0.000091  
352.000000	0.000070  
350.000000	-0.000028 

