PE UV                   SPECTRUM    ASCII       PEDS        1.5         
  -1
BG-40E.SP
96/07/31
14:41:11.00
96/07/31
14:41:11.00
FINN POULSEN
BG-40 SCHOTT FARVEGLAS TYKKELSE 1MM. MRK.E
350.000000
1









4444

SCAN
1
1


0.0

2.00
MANUAL



UV/VIS




































#HDR
-1
-1
#GR
NM
%T
0.00002384185791015625
0.0
1100.000000
2.500000
301
8
90.798151
0.149075
#DATA
1100.000000	1.660080  
1097.500000	1.612699  
1095.000000	1.563573  
1092.500000	1.502765  
1090.000000	1.461920  
1087.500000	1.428361  
1085.000000	1.386832  
1082.500000	1.331290  
1080.000000	1.299623  
1077.500000	1.251917  
1075.000000	1.223362  
1072.500000	1.177047  
1070.000000	1.141176  
1067.500000	1.115551  
1065.000000	1.080024  
1062.500000	1.036548  
1060.000000	1.002918  
1057.500000	0.975245  
1055.000000	0.952418  
1052.500000	0.918432  
1050.000000	0.882021  
1047.500000	0.857210  
1045.000000	0.839353  
1042.500000	0.812867  
1040.000000	0.784394  
1037.500000	0.751940  
1035.000000	0.725900  
1032.500000	0.706432  
1030.000000	0.687637  
1027.500000	0.667819  
1025.000000	0.648528  
1022.500000	0.627236  
1020.000000	0.608475  
1017.500000	0.592666  
1015.000000	0.574133  
1012.500000	0.557183  
1010.000000	0.540278  
1007.500000	0.524570  
1005.000000	0.509262  
1002.500000	0.491181  
1000.000000	0.472987  
997.500000	 0.458124  
995.000000	 0.445503  
992.500000	 0.433196  
990.000000	 0.418827  
987.500000	 0.405156  
985.000000	 0.391945  
982.500000	 0.382280  
980.000000	 0.371606  
977.500000	 0.359407  
975.000000	 0.349314  
972.500000	 0.336243  
970.000000	 0.328214  
967.500000	 0.322430  
965.000000	 0.314969  
962.500000	 0.302638  
960.000000	 0.290254  
957.500000	 0.282431  
955.000000	 0.274292  
952.500000	 0.265316  
950.000000	 0.253175  
947.500000	 0.251603  
945.000000	 0.248775  
942.500000	 0.242291  
940.000000	 0.234745  
937.500000	 0.225059  
935.000000	 0.227859  
932.500000	 0.226202  
930.000000	 0.219436  
927.500000	 0.217293  
925.000000	 0.209591  
922.500000	 0.210362  
920.000000	 0.205351  
917.500000	 0.196046  
915.000000	 0.201571  
912.500000	 0.194221  
910.000000	 0.191984  
907.500000	 0.184095  
905.000000	 0.180050  
902.500000	 0.179287  
900.000000	 0.169049  
897.500000	 0.160911  
895.000000	 0.169914  
892.500000	 0.175106  
890.000000	 0.178974  
887.500000	 0.166227  
885.000000	 0.164405  
882.500000	 0.169214  
880.000000	 0.184261  
877.500000	 0.149075  
875.000000	 0.165624  
872.500000	 0.166810  
870.000000	 0.189955  
867.500000	 0.174969  
865.000000	 0.167852  
862.500000	 0.159158  
860.000000	 0.168544  
857.500000	 0.161237  
855.000000	 0.174602  
852.500000	 0.181320  
850.000000	 0.180784  
847.500000	 0.185715  
845.000000	 0.183212  
842.500000	 0.197796  
840.000000	 0.199781  
837.500000	 0.206092  
835.000000	 0.208260  
832.500000	 0.216253  
830.000000	 0.224715  
827.500000	 0.233827  
825.000000	 0.240615  
822.500000	 0.249893  
820.000000	 0.264887  
817.500000	 0.275527  
815.000000	 0.288408  
812.500000	 0.304858  
810.000000	 0.322674  
807.500000	 0.338631  
805.000000	 0.359710  
802.500000	 0.380831  
800.000000	 0.402058  
797.500000	 0.425591  
795.000000	 0.453160  
792.500000	 0.487786  
790.000000	 0.517532  
787.500000	 0.554890  
785.000000	 0.598257  
782.500000	 0.643531  
780.000000	 0.688882  
777.500000	 0.742959  
775.000000	 0.805592  
772.500000	 0.870245  
770.000000	 0.942479  
767.500000	 1.020222  
765.000000	 1.107902  
762.500000	 1.206652  
760.000000	 1.308343  
757.500000	 1.421995  
755.000000	 1.556080  
752.500000	 1.696271  
750.000000	 1.844164  
747.500000	 2.012073  
745.000000	 2.198570  
742.500000	 2.403506  
740.000000	 2.626269  
737.500000	 2.867053  
735.000000	 3.133897  
732.500000	 3.432401  
730.000000	 3.752686  
727.500000	 4.087648  
725.000000	 4.466010  
722.500000	 4.889480  
720.000000	 5.338654  
717.500000	 5.810207  
715.000000	 6.317373  
712.500000	 6.894225  
710.000000	 7.494461  
707.500000	 8.131104  
705.000000	 8.829633  
702.500000	 9.580317  
700.000000	 10.388514 
697.500000	 11.253126 
695.000000	 12.148042 
692.500000	 13.103495 
690.000000	 14.121037 
687.500000	 15.191013 
685.000000	 16.314638 
682.500000	 17.529836 
680.000000	 18.765245 
677.500000	 20.076362 
675.000000	 21.435576 
672.500000	 22.844008 
670.000000	 24.355740 
667.500000	 25.846651 
665.000000	 27.436758 
662.500000	 29.042088 
660.000000	 30.691775 
657.500000	 32.421219 
655.000000	 34.147197 
652.500000	 35.927717 
650.000000	 37.751021 
647.500000	 39.648109 
645.000000	 41.454519 
642.500000	 43.331925 
640.000000	 45.172687 
637.500000	 47.025820 
635.000000	 48.878282 
632.500000	 50.725616 
630.000000	 52.604733 
627.500000	 54.405242 
625.000000	 56.190425 
622.500000	 58.056170 
620.000000	 59.759236 
617.500000	 61.502973 
615.000000	 63.230111 
612.500000	 64.825426 
610.000000	 66.318946 
607.500000	 67.879516 
605.000000	 69.430677 
602.500000	 70.918873 
600.000000	 72.252481 
597.500000	 73.627099 
595.000000	 74.818517 
592.500000	 76.032583 
590.000000	 77.101525 
587.500000	 78.182239 
585.000000	 79.283080 
582.500000	 80.215182 
580.000000	 81.063132 
577.500000	 81.979861 
575.000000	 82.814366 
572.500000	 83.546684 
570.000000	 84.285010 
567.500000	 84.930895 
565.000000	 85.603512 
562.500000	 86.178748 
560.000000	 86.657309 
557.500000	 87.106071 
555.000000	 87.535357 
552.500000	 87.904007 
550.000000	 88.313235 
547.500000	 88.602956 
545.000000	 88.808981 
542.500000	 89.150012 
540.000000	 89.417972 
537.500000	 89.606886 
535.000000	 89.792621 
532.500000	 89.884130 
530.000000	 89.994703 
527.500000	 90.117835 
525.000000	 90.227582 
522.500000	 90.325436 
520.000000	 90.446169 
517.500000	 90.541398 
515.000000	 90.623803 
512.500000	 90.641235 
510.000000	 90.646409 
507.500000	 90.738232 
505.000000	 90.752752 
502.500000	 90.719615 
500.000000	 90.759936 
497.500000	 90.798151 
495.000000	 90.740853 
492.500000	 90.793739 
490.000000	 90.796049 
487.500000	 90.707750 
485.000000	 90.718215 
482.500000	 90.665660 
480.000000	 90.640176 
477.500000	 90.659842 
475.000000	 90.630962 
472.500000	 90.599975 
470.000000	 90.593963 
467.500000	 90.584268 
465.000000	 90.578831 
462.500000	 90.470580 
460.000000	 90.458243 
457.500000	 90.374203 
455.000000	 90.335823 
452.500000	 90.297623 
450.000000	 90.221096 
447.500000	 90.164635 
445.000000	 90.152057 
442.500000	 90.053552 
440.000000	 89.957067 
437.500000	 89.963772 
435.000000	 89.920538 
432.500000	 89.910843 
430.000000	 89.856634 
427.500000	 89.719861 
425.000000	 89.648385 
422.500000	 89.602753 
420.000000	 89.534105 
417.500000	 89.488223 
415.000000	 89.425410 
412.500000	 89.375034 
410.000000	 89.152065 
407.500000	 89.088235 
405.000000	 89.041458 
402.500000	 88.932689 
400.000000	 88.756946 
397.500000	 88.645138 
395.000000	 88.650224 
392.500000	 88.472547 
390.000000	 88.333801 
387.500000	 88.238593 
385.000000	 88.072495 
382.500000	 87.954546 
380.000000	 87.819205 
377.500000	 87.560814 
375.000000	 87.181874 
372.500000	 86.917650 
370.000000	 86.755855 
367.500000	 86.357507 
365.000000	 86.032409 
362.500000	 85.770415 
360.000000	 85.209845 
357.500000	 84.568336 
355.000000	 83.871850 
352.500000	 83.280058 
350.000000	 82.370436 

