PE UV                   SPECTRUM    ASCII       PEDS        1.5         
  -1
BG-40B.SP
96/07/31
14:28:22.00
96/07/31
14:28:22.00
FINN POULSEN
BG-40 SCHOTT FARVEGLAS TYKKELSE 1MM. MRK.B
350.000000
1









4444

SCAN
1
1


0.0

2.00
MANUAL



UV/VIS




































#HDR
-1
-1
#GR
NM
%T
0.00002384185791015625
0.0
1100.000000
2.500000
301
8
90.936044
0.173851
#DATA
1100.000000	1.799247  
1097.500000	1.749041  
1095.000000	1.698185  
1092.500000	1.635171  
1090.000000	1.590309  
1087.500000	1.555551  
1085.000000	1.508016  
1082.500000	1.451224  
1080.000000	1.418138  
1077.500000	1.366814  
1075.000000	1.336169  
1072.500000	1.287334  
1070.000000	1.257152  
1067.500000	1.215931  
1065.000000	1.166438  
1062.500000	1.132227  
1060.000000	1.102614  
1057.500000	1.079582  
1055.000000	1.043953  
1052.500000	1.006030  
1050.000000	0.966897  
1047.500000	0.940239  
1045.000000	0.919722  
1042.500000	0.891582  
1040.000000	0.860023  
1037.500000	0.828118  
1035.000000	0.802647  
1032.500000	0.781957  
1030.000000	0.760037  
1027.500000	0.735920  
1025.000000	0.716565  
1022.500000	0.694945  
1020.000000	0.673507  
1017.500000	0.655891  
1015.000000	0.636201  
1012.500000	0.617539  
1010.000000	0.596286  
1007.500000	0.577399  
1005.000000	0.561914  
1002.500000	0.546843  
1000.000000	0.529586  
997.500000	 0.511458  
995.000000	 0.496200  
992.500000	 0.481268  
990.000000	 0.465855  
987.500000	 0.451395  
985.000000	 0.438126  
982.500000	 0.427952  
980.000000	 0.417287  
977.500000	 0.402829  
975.000000	 0.388313  
972.500000	 0.375760  
970.000000	 0.366857  
967.500000	 0.358076  
965.000000	 0.350604  
962.500000	 0.335277  
960.000000	 0.324844  
957.500000	 0.312929  
955.000000	 0.303506  
952.500000	 0.299486  
950.000000	 0.286569  
947.500000	 0.282554  
945.000000	 0.280155  
942.500000	 0.272818  
940.000000	 0.264698  
937.500000	 0.254716  
935.000000	 0.257222  
932.500000	 0.252763  
930.000000	 0.241960  
927.500000	 0.242212  
925.000000	 0.234062  
922.500000	 0.234832  
920.000000	 0.231400  
917.500000	 0.224360  
915.000000	 0.221264  
912.500000	 0.218175  
910.000000	 0.214113  
907.500000	 0.211831  
905.000000	 0.202894  
902.500000	 0.211645  
900.000000	 0.205891  
897.500000	 0.187914  
895.000000	 0.178395  
892.500000	 0.178962  
890.000000	 0.186115  
887.500000	 0.184503  
885.000000	 0.183384  
882.500000	 0.193450  
880.000000	 0.198018  
877.500000	 0.179747  
875.000000	 0.195144  
872.500000	 0.196310  
870.000000	 0.200077  
867.500000	 0.200880  
865.000000	 0.192741  
862.500000	 0.173851  
860.000000	 0.192876  
857.500000	 0.203236  
855.000000	 0.198414  
852.500000	 0.197089  
850.000000	 0.209775  
847.500000	 0.212331  
845.000000	 0.216996  
842.500000	 0.221008  
840.000000	 0.229916  
837.500000	 0.231925  
835.000000	 0.235766  
832.500000	 0.243186  
830.000000	 0.249761  
827.500000	 0.258402  
825.000000	 0.273393  
822.500000	 0.286173  
820.000000	 0.296417  
817.500000	 0.309436  
815.000000	 0.324786  
812.500000	 0.339401  
810.000000	 0.360038  
807.500000	 0.379070  
805.000000	 0.398917  
802.500000	 0.423372  
800.000000	 0.446823  
797.500000	 0.476574  
795.000000	 0.508297  
792.500000	 0.536823  
790.000000	 0.575231  
787.500000	 0.614964  
785.000000	 0.661335  
782.500000	 0.708291  
780.000000	 0.760346  
777.500000	 0.817649  
775.000000	 0.885164  
772.500000	 0.956544  
770.000000	 1.033579  
767.500000	 1.119373  
765.000000	 1.213038  
762.500000	 1.315118  
760.000000	 1.423503  
757.500000	 1.546182  
755.000000	 1.681512  
752.500000	 1.829091  
750.000000	 1.993295  
747.500000	 2.172580  
745.000000	 2.367086  
742.500000	 2.587047  
740.000000	 2.820350  
737.500000	 3.078723  
735.000000	 3.364863  
732.500000	 3.659676  
730.000000	 3.993569  
727.500000	 4.347619  
725.000000	 4.745516  
722.500000	 5.176384  
720.000000	 5.646464  
717.500000	 6.136413  
715.000000	 6.675652  
712.500000	 7.251928  
710.000000	 7.881345  
707.500000	 8.528706  
705.000000	 9.253225  
702.500000	 10.021078 
700.000000	 10.843167 
697.500000	 11.723377 
695.000000	 12.649371 
692.500000	 13.609534 
690.000000	 14.650812 
687.500000	 15.760354 
685.000000	 16.887818 
682.500000	 18.111818 
680.000000	 19.394305 
677.500000	 20.738777 
675.000000	 22.102509 
672.500000	 23.513300 
670.000000	 25.003760 
667.500000	 26.526894 
665.000000	 28.106954 
662.500000	 29.735495 
660.000000	 31.398580 
657.500000	 33.135416 
655.000000	 34.856355 
652.500000	 36.644062 
650.000000	 38.461152 
647.500000	 40.340561 
645.000000	 42.141941 
642.500000	 43.970072 
640.000000	 45.826459 
637.500000	 47.713854 
635.000000	 49.534107 
632.500000	 51.359602 
630.000000	 53.181305 
627.500000	 54.966075 
625.000000	 56.805772 
622.500000	 58.577082 
620.000000	 60.278328 
617.500000	 62.056799 
615.000000	 63.757875 
612.500000	 65.276090 
610.000000	 66.794522 
607.500000	 68.358345 
605.000000	 69.797727 
602.500000	 71.283550 
600.000000	 72.638291 
597.500000	 73.970694 
595.000000	 75.078343 
592.500000	 76.301010 
590.000000	 77.421122 
587.500000	 78.501809 
585.000000	 79.588224 
582.500000	 80.501172 
580.000000	 81.373740 
577.500000	 82.252306 
575.000000	 83.069980 
572.500000	 83.782953 
570.000000	 84.494850 
567.500000	 85.140000 
565.000000	 85.788717 
562.500000	 86.278973 
560.000000	 86.775441 
557.500000	 87.215674 
555.000000	 87.629967 
552.500000	 88.034362 
550.000000	 88.386222 
547.500000	 88.638469 
545.000000	 88.886436 
542.500000	 89.234016 
540.000000	 89.487996 
537.500000	 89.706085 
535.000000	 89.868601 
532.500000	 89.991121 
530.000000	 90.180647 
527.500000	 90.277886 
525.000000	 90.359214 
522.500000	 90.441219 
520.000000	 90.530545 
517.500000	 90.625605 
515.000000	 90.677372 
512.500000	 90.704578 
510.000000	 90.718261 
507.500000	 90.758298 
505.000000	 90.795096 
502.500000	 90.817156 
500.000000	 90.894024 
497.500000	 90.936044 
495.000000	 90.910181 
492.500000	 90.909704 
490.000000	 90.890503 
487.500000	 90.829868 
485.000000	 90.800959 
482.500000	 90.752636 
480.000000	 90.751085 
477.500000	 90.771780 
475.000000	 90.681547 
472.500000	 90.642539 
470.000000	 90.639578 
467.500000	 90.659835 
465.000000	 90.641608 
462.500000	 90.520239 
460.000000	 90.520600 
457.500000	 90.461183 
455.000000	 90.400737 
452.500000	 90.349431 
450.000000	 90.347085 
447.500000	 90.320274 
445.000000	 90.256709 
442.500000	 90.144193 
440.000000	 90.145278 
437.500000	 90.169290 
435.000000	 90.011348 
432.500000	 89.964633 
430.000000	 89.943828 
427.500000	 89.811850 
425.000000	 89.799922 
422.500000	 89.752805 
420.000000	 89.601188 
417.500000	 89.580390 
415.000000	 89.574090 
412.500000	 89.529619 
410.000000	 89.289689 
407.500000	 89.243872 
405.000000	 89.165508 
402.500000	 89.003965 
400.000000	 88.940128 
397.500000	 88.879060 
395.000000	 88.764747 
392.500000	 88.555721 
390.000000	 88.445642 
387.500000	 88.364423 
385.000000	 88.144758 
382.500000	 88.040308 
380.000000	 87.834325 
377.500000	 87.672638 
375.000000	 87.435276 
372.500000	 87.031837 
370.000000	 86.795384 
367.500000	 86.388921 
365.000000	 86.031373 
362.500000	 85.824088 
360.000000	 85.428852 
357.500000	 84.887339 
355.000000	 84.216919 
352.500000	 83.473806 
350.000000	 82.497569 

