PE UV                   SPECTRUM    ASCII       PEDS        1.5         
  -1
X151424G.SP
96/07/30
14:44:21.00
96/07/30
14:44:21.00
FINN POULSEN
X-FILTER NO.1540X24. PRODUKTIONSUGE 23/96. MRK.G.
350.000000
1









4444

SCAN
1
1


0.0

2.00
MANUAL



UV/VIS




































#HDR
-1
-1
#GR
NM
%T
0.00002384185791015625
0.0
1100.000000
2.500000
301
8
92.342122
-0.058015
#DATA
1100.000000	90.485484 
1097.500000	90.313575 
1095.000000	90.526513 
1092.500000	88.784921 
1090.000000	88.562617 
1087.500000	89.379999 
1085.000000	89.186790 
1082.500000	90.467463 
1080.000000	90.511326 
1077.500000	90.366415 
1075.000000	89.554686 
1072.500000	87.534746 
1070.000000	88.237350 
1067.500000	88.641461 
1065.000000	90.161507 
1062.500000	91.520717 
1060.000000	89.857928 
1057.500000	87.900115 
1055.000000	88.427115 
1052.500000	90.185078 
1050.000000	90.207177 
1047.500000	90.423938 
1045.000000	89.974217 
1042.500000	88.937609 
1040.000000	89.439007 
1037.500000	91.032291 
1035.000000	90.806512 
1032.500000	89.548467 
1030.000000	89.960511 
1027.500000	91.443066 
1025.000000	90.976212 
1022.500000	89.857665 
1020.000000	90.466920 
1017.500000	91.498129 
1015.000000	91.347322 
1012.500000	90.376569 
1010.000000	89.843450 
1007.500000	89.587378 
1005.000000	89.589274 
1002.500000	90.078872 
1000.000000	89.228265 
997.500000	 88.336634 
995.000000	 88.841858 
992.500000	 89.702300 
990.000000	 89.448235 
987.500000	 89.000841 
985.000000	 87.511267 
982.500000	 86.563780 
980.000000	 86.928885 
977.500000	 88.058210 
975.000000	 88.590857 
972.500000	 88.549040 
970.000000	 87.275878 
967.500000	 86.724921 
965.000000	 87.453964 
962.500000	 88.644411 
960.000000	 88.985201 
957.500000	 89.677855 
955.000000	 90.014589 
952.500000	 89.631423 
950.000000	 89.823927 
947.500000	 91.121898 
945.000000	 90.780561 
942.500000	 89.988142 
940.000000	 91.247187 
937.500000	 91.770695 
935.000000	 92.342122 
932.500000	 92.126839 
930.000000	 91.423466 
927.500000	 90.785176 
925.000000	 90.285359 
922.500000	 89.926655 
920.000000	 89.501639 
917.500000	 88.589510 
915.000000	 88.557146 
912.500000	 87.734034 
910.000000	 87.022236 
907.500000	 85.135464 
905.000000	 84.469409 
902.500000	 83.027573 
900.000000	 83.255788 
897.500000	 82.972397 
895.000000	 82.038320 
892.500000	 82.063755 
890.000000	 82.130472 
887.500000	 82.706073 
885.000000	 82.409802 
882.500000	 82.404676 
880.000000	 82.630737 
877.500000	 83.232317 
875.000000	 84.100734 
872.500000	 84.477362 
870.000000	 84.885348 
867.500000	 84.076964 
865.000000	 83.068740 
862.500000	 80.979703 
860.000000	 78.508688 
857.500000	 74.133198 
855.000000	 69.226018 
852.500000	 63.148013 
850.000000	 56.722183 
847.500000	 50.378236 
845.000000	 44.070737 
842.500000	 38.107660 
840.000000	 32.627178 
837.500000	 27.870920 
835.000000	 23.771710 
832.500000	 20.111292 
830.000000	 17.109924 
827.500000	 14.592985 
825.000000	 12.432963 
822.500000	 10.640452 
820.000000	 9.179423  
817.500000	 7.972645  
815.000000	 6.948274  
812.500000	 5.958549  
810.000000	 5.200067  
807.500000	 4.592625  
805.000000	 4.042337  
802.500000	 3.622392  
800.000000	 3.318135  
797.500000	 2.976156  
795.000000	 2.648615  
792.500000	 2.437376  
790.000000	 2.237060  
787.500000	 2.091142  
785.000000	 1.900358  
782.500000	 1.829096  
780.000000	 1.774797  
777.500000	 1.592491  
775.000000	 1.517330  
772.500000	 1.452013  
770.000000	 1.449275  
767.500000	 1.368819  
765.000000	 1.258145  
762.500000	 1.277495  
760.000000	 1.321100  
757.500000	 1.315418  
755.000000	 1.219340  
752.500000	 1.281074  
750.000000	 1.345367  
747.500000	 1.373727  
745.000000	 1.375434  
742.500000	 1.399214  
740.000000	 1.502018  
737.500000	 1.612994  
735.000000	 1.647404  
732.500000	 1.783241  
730.000000	 1.992538  
727.500000	 2.172316  
725.000000	 2.350216  
722.500000	 2.526065  
720.000000	 2.885321  
717.500000	 3.184515  
715.000000	 3.501824  
712.500000	 3.958127  
710.000000	 4.492761  
707.500000	 5.137993  
705.000000	 5.758407  
702.500000	 6.469040  
700.000000	 7.371514  
697.500000	 8.310484  
695.000000	 9.282402  
692.500000	 10.316831 
690.000000	 11.471328 
687.500000	 12.734114 
685.000000	 14.212939 
682.500000	 15.852795 
680.000000	 17.648224 
677.500000	 19.577903 
675.000000	 21.836052 
672.500000	 24.467663 
670.000000	 27.335297 
667.500000	 30.434905 
665.000000	 33.974177 
662.500000	 37.755882 
660.000000	 41.565616 
657.500000	 45.364595 
655.000000	 49.002606 
652.500000	 52.510691 
650.000000	 55.582964 
647.500000	 58.296460 
645.000000	 60.788428 
642.500000	 62.959394 
640.000000	 64.962303 
637.500000	 66.918103 
635.000000	 68.703546 
632.500000	 70.564870 
630.000000	 72.249156 
627.500000	 73.913166 
625.000000	 75.741774 
622.500000	 77.614819 
620.000000	 79.294117 
617.500000	 80.870674 
615.000000	 82.036522 
612.500000	 82.774264 
610.000000	 82.716189 
607.500000	 81.950001 
605.000000	 80.235494 
602.500000	 77.888107 
600.000000	 75.020572 
597.500000	 71.844742 
595.000000	 68.770745 
592.500000	 66.075733 
590.000000	 63.928145 
587.500000	 62.219635 
585.000000	 60.922902 
582.500000	 59.901763 
580.000000	 58.811498 
577.500000	 57.451888 
575.000000	 55.563764 
572.500000	 53.024921 
570.000000	 49.753932 
567.500000	 45.797530 
565.000000	 41.482304 
562.500000	 37.123412 
560.000000	 33.036095 
557.500000	 29.463904 
555.000000	 26.625007 
552.500000	 24.224098 
550.000000	 22.328184 
547.500000	 20.767758 
545.000000	 19.235053 
542.500000	 17.152168 
540.000000	 14.207228 
537.500000	 10.928508 
535.000000	 7.918493  
532.500000	 5.464198  
530.000000	 3.714121  
527.500000	 2.550639  
525.000000	 1.894797  
522.500000	 1.461527  
520.000000	 1.155143  
517.500000	 0.937215  
515.000000	 0.858892  
512.500000	 0.824562  
510.000000	 0.767448  
507.500000	 0.776007  
505.000000	 0.927040  
502.500000	 1.108093  
500.000000	 1.388587  
497.500000	 1.910308  
495.000000	 2.888986  
492.500000	 4.692882  
490.000000	 7.720628  
487.500000	 11.932259 
485.000000	 15.830180 
482.500000	 17.631659 
480.000000	 17.717600 
477.500000	 17.429528 
475.000000	 17.472855 
472.500000	 17.703802 
470.000000	 18.014460 
467.500000	 18.745667 
465.000000	 20.495539 
462.500000	 23.933623 
460.000000	 29.505813 
457.500000	 36.856079 
455.000000	 44.057590 
452.500000	 48.344261 
450.000000	 49.264462 
447.500000	 48.741425 
445.000000	 48.551930 
442.500000	 48.816863 
440.000000	 48.093809 
437.500000	 44.719650 
435.000000	 38.397598 
432.500000	 31.116917 
430.000000	 25.429142 
427.500000	 22.532903 
425.000000	 22.218830 
422.500000	 23.553248 
420.000000	 25.483557 
417.500000	 26.088886 
415.000000	 21.089850 
412.500000	 11.264794 
410.000000	 4.706404  
407.500000	 2.336682  
405.000000	 1.754240  
402.500000	 2.343555  
400.000000	 6.308152  
397.500000	 11.602148 
395.000000	 9.056697  
392.500000	 4.162057  
390.000000	 4.616958  
387.500000	 7.794040  
385.000000	 8.663311  
382.500000	 4.418469  
380.000000	 2.519197  
377.500000	 1.476799  
375.000000	 0.366987  
372.500000	 0.030401  
370.000000	 -0.024862 
367.500000	 0.000000  
365.000000	 0.013822  
362.500000	 0.000000  
360.000000	 -0.022123 
357.500000	 -0.022106 
355.000000	 0.046948  
352.500000	 0.005522  
350.000000	 -0.058015 

