PE UV                   SPECTRUM    ASCII       PEDS        1.5         
  -1
X151424B.SP
96/07/30
13:54:58.00
96/07/30
13:54:58.00
FINN POULSEN
X-FILTER NO.1540X24. PRODUKTIONSUGE 23/96. MRK.B.
350.000000
1









4444

SCAN
1
1


0.0

2.00
MANUAL



UV/VIS




































#HDR
-1
-1
#GR
NM
%T
0.00002384185791015625
0.0
1100.000000
2.500000
301
8
92.553710
-0.033151
#DATA
1100.000000	90.729446 
1097.500000	90.253950 
1095.000000	89.102271 
1092.500000	88.991366 
1090.000000	90.560270 
1087.500000	90.226323 
1085.000000	89.038885 
1082.500000	90.368992 
1080.000000	90.347963 
1077.500000	89.260966 
1075.000000	90.451327 
1072.500000	90.246361 
1070.000000	88.525030 
1067.500000	88.952247 
1065.000000	90.578299 
1062.500000	90.698633 
1060.000000	90.290438 
1057.500000	88.771135 
1055.000000	89.514101 
1052.500000	91.161345 
1050.000000	90.907841 
1047.500000	90.584583 
1045.000000	89.619702 
1042.500000	90.193530 
1040.000000	91.314451 
1037.500000	91.320170 
1035.000000	90.524421 
1032.500000	91.148663 
1030.000000	92.050128 
1027.500000	91.516318 
1025.000000	90.415078 
1022.500000	91.096651 
1020.000000	91.980369 
1017.500000	90.980317 
1015.000000	90.334602 
1012.500000	90.529712 
1010.000000	90.084295 
1007.500000	89.719525 
1005.000000	88.848316 
1002.500000	89.392793 
1000.000000	89.315068 
997.500000	 89.126129 
995.000000	 89.702067 
992.500000	 88.847090 
990.000000	 87.782732 
987.500000	 88.539148 
985.000000	 88.027534 
982.500000	 87.219338 
980.000000	 87.504753 
977.500000	 88.735892 
975.000000	 89.187220 
972.500000	 89.356930 
970.000000	 88.310492 
967.500000	 87.590628 
965.000000	 88.147205 
962.500000	 89.628328 
960.000000	 90.292179 
957.500000	 90.584731 
955.000000	 90.735937 
952.500000	 90.425073 
950.000000	 91.093914 
947.500000	 91.672060 
945.000000	 91.487474 
942.500000	 91.176629 
940.000000	 92.231167 
937.500000	 92.520783 
935.000000	 92.553710 
932.500000	 91.988380 
930.000000	 91.204179 
927.500000	 90.380307 
925.000000	 89.888126 
922.500000	 89.209450 
920.000000	 88.788921 
917.500000	 88.380367 
915.000000	 87.225074 
912.500000	 86.457853 
910.000000	 85.483607 
907.500000	 84.717815 
905.000000	 84.591229 
902.500000	 83.265083 
900.000000	 83.623105 
897.500000	 83.553349 
895.000000	 83.272183 
892.500000	 83.324727 
890.000000	 83.555483 
887.500000	 83.459869 
885.000000	 82.875425 
882.500000	 84.461342 
880.000000	 85.661615 
877.500000	 85.954326 
875.000000	 86.267833 
872.500000	 86.045005 
870.000000	 85.087199 
867.500000	 83.778256 
865.000000	 81.462281 
862.500000	 77.373515 
860.000000	 73.141266 
857.500000	 67.492858 
855.000000	 61.112826 
852.500000	 54.458330 
850.000000	 47.871238 
847.500000	 41.706825 
845.000000	 35.799429 
842.500000	 30.623579 
840.000000	 26.114649 
837.500000	 22.300100 
835.000000	 18.937119 
832.500000	 16.185149 
830.000000	 13.713803 
827.500000	 11.773790 
825.000000	 10.155833 
822.500000	 8.699687  
820.000000	 7.547276  
817.500000	 6.633083  
815.000000	 5.831035  
812.500000	 5.054629  
810.000000	 4.403736  
807.500000	 3.931715  
805.000000	 3.493412  
802.500000	 3.149539  
800.000000	 2.932567  
797.500000	 2.635138  
795.000000	 2.375591  
792.500000	 2.237545  
790.000000	 2.065195  
787.500000	 1.927683  
785.000000	 1.750923  
782.500000	 1.688179  
780.000000	 1.653660  
777.500000	 1.553031  
775.000000	 1.458104  
772.500000	 1.364610  
770.000000	 1.404161  
767.500000	 1.382930  
765.000000	 1.275071  
762.500000	 1.291596  
760.000000	 1.349329  
757.500000	 1.394456  
755.000000	 1.287081  
752.500000	 1.331866  
750.000000	 1.407417  
747.500000	 1.461171  
745.000000	 1.482757  
742.500000	 1.498148  
740.000000	 1.634715  
737.500000	 1.776836  
735.000000	 1.876289  
732.500000	 2.012152  
730.000000	 2.218642  
727.500000	 2.483050  
725.000000	 2.700488  
722.500000	 2.924472  
720.000000	 3.309218  
717.500000	 3.684656  
715.000000	 4.121290  
712.500000	 4.631489  
710.000000	 5.261818  
707.500000	 5.969347  
705.000000	 6.618208  
702.500000	 7.388340  
700.000000	 8.332156  
697.500000	 9.350708  
695.000000	 10.286134 
692.500000	 11.343705 
690.000000	 12.571784 
687.500000	 13.899734 
685.000000	 15.469519 
682.500000	 17.296532 
680.000000	 19.307435 
677.500000	 21.543909 
675.000000	 24.136075 
672.500000	 27.157662 
670.000000	 30.499065 
667.500000	 34.175208 
665.000000	 38.065575 
662.500000	 42.215238 
660.000000	 46.396192 
657.500000	 50.320367 
655.000000	 53.949903 
652.500000	 57.282845 
650.000000	 60.326641 
647.500000	 62.755275 
645.000000	 64.812819 
642.500000	 66.815902 
640.000000	 68.658239 
637.500000	 70.289813 
635.000000	 71.719148 
632.500000	 73.277158 
630.000000	 74.846190 
627.500000	 76.259706 
625.000000	 77.804857 
622.500000	 79.402002 
620.000000	 80.810772 
617.500000	 81.894498 
615.000000	 82.507230 
612.500000	 82.490713 
610.000000	 81.703997 
607.500000	 80.133934 
605.000000	 77.715988 
602.500000	 74.858147 
600.000000	 71.859481 
597.500000	 68.835003 
595.000000	 65.979176 
592.500000	 63.746986 
590.000000	 62.106248 
587.500000	 60.703537 
585.000000	 59.483174 
582.500000	 58.385622 
580.000000	 57.087262 
577.500000	 55.254555 
575.000000	 52.688110 
572.500000	 49.353527 
570.000000	 45.586436 
567.500000	 41.336140 
565.000000	 36.926625 
562.500000	 32.746739 
560.000000	 29.084641 
557.500000	 26.049534 
555.000000	 23.663185 
552.500000	 21.679598 
550.000000	 19.995431 
547.500000	 18.397075 
545.000000	 16.392927 
542.500000	 13.836082 
540.000000	 10.813517 
537.500000	 7.879291  
535.000000	 5.554122  
532.500000	 3.882910  
530.000000	 2.749712  
527.500000	 1.950995  
525.000000	 1.467679  
522.500000	 1.206476  
520.000000	 1.003602  
517.500000	 0.880241  
515.000000	 0.853222  
512.500000	 0.849890  
510.000000	 0.895822  
507.500000	 0.919610  
505.000000	 1.140341  
502.500000	 1.434003  
500.000000	 1.960837  
497.500000	 2.900838  
495.000000	 4.605947  
492.500000	 7.553253  
490.000000	 11.333185 
487.500000	 14.633536 
485.000000	 16.113955 
482.500000	 16.267023 
480.000000	 16.348272 
477.500000	 16.731789 
475.000000	 17.509141 
472.500000	 18.453774 
470.000000	 19.638487 
467.500000	 21.493331 
465.000000	 24.848769 
462.500000	 30.241069 
460.000000	 37.214787 
457.500000	 43.775661 
455.000000	 47.498220 
452.500000	 48.250980 
450.000000	 47.966942 
447.500000	 48.235229 
445.000000	 49.239902 
442.500000	 49.561184 
440.000000	 47.074024 
437.500000	 41.064131 
435.000000	 33.360206 
432.500000	 26.963918 
430.000000	 23.215376 
427.500000	 21.847059 
425.000000	 21.944112 
422.500000	 22.648422 
420.000000	 23.327320 
417.500000	 21.558564 
415.000000	 14.597892 
412.500000	 6.854782  
410.000000	 3.213453  
407.500000	 2.023089  
405.000000	 2.014743  
402.500000	 4.191251  
400.000000	 10.700044 
397.500000	 13.537686 
395.000000	 6.286836  
392.500000	 4.452433  
390.000000	 6.906084  
387.500000	 10.109841 
385.000000	 7.786749  
382.500000	 3.650280  
380.000000	 2.668360  
377.500000	 1.173158  
375.000000	 0.182114  
372.500000	 0.063565  
370.000000	 -0.011050 
367.500000	 0.002764  
365.000000	 0.022116  
362.500000	 0.022146  
360.000000	 0.024889  
357.500000	 -0.016580 
355.000000	 0.044186  
352.500000	 0.035897  
350.000000	 -0.033151 

