PE UV                   SPECTRUM    ASCII       PEDS        1.5         
  -1
Y151524C.SP
96/07/30
15:16:32.00
96/07/30
15:16:32.00
FINN POULSEN
Y-FILTER NO.15150Y24. PRODUKTIONSUGE 19/96. MRK.C
350.000000
1









4444

SCAN
1
1


0.0

2.00
MANUAL



UV/VIS




































#HDR
-1
-1
#GR
NM
%T
0.00002384185791015625
0.0
1100.000000
2.500000
301
8
92.517843
-0.055253
#DATA
1100.000000	72.123282 
1097.500000	71.780903 
1095.000000	72.059651 
1092.500000	70.226285 
1090.000000	70.166198 
1087.500000	71.074831 
1085.000000	71.346743 
1082.500000	72.824749 
1080.000000	73.507950 
1077.500000	74.011162 
1075.000000	73.458899 
1072.500000	72.586798 
1070.000000	73.829112 
1067.500000	75.069588 
1065.000000	77.336916 
1062.500000	79.621126 
1060.000000	78.826202 
1057.500000	78.105870 
1055.000000	79.587918 
1052.500000	82.094436 
1050.000000	82.596032 
1047.500000	82.925368 
1045.000000	83.120266 
1042.500000	84.642035 
1040.000000	86.256766 
1037.500000	86.635343 
1035.000000	86.816936 
1032.500000	88.238969 
1030.000000	89.752097 
1027.500000	89.766407 
1025.000000	89.338452 
1022.500000	90.389047 
1020.000000	91.338798 
1017.500000	90.850187 
1015.000000	91.093467 
1012.500000	92.517843 
1010.000000	92.407904 
1007.500000	91.138079 
1005.000000	90.135664 
1002.500000	91.145805 
1000.000000	91.685880 
997.500000	 91.543449 
995.000000	 91.684644 
992.500000	 90.449255 
990.000000	 89.864610 
987.500000	 89.769425 
985.000000	 87.874566 
982.500000	 86.285167 
980.000000	 85.323518 
977.500000	 85.444678 
975.000000	 84.718549 
972.500000	 83.228857 
970.000000	 80.049834 
967.500000	 77.594416 
965.000000	 76.286286 
962.500000	 75.650763 
960.000000	 74.111579 
957.500000	 72.425554 
955.000000	 70.754309 
952.500000	 69.163303 
950.000000	 67.934855 
947.500000	 66.879719 
945.000000	 66.202558 
942.500000	 65.374871 
940.000000	 64.910140 
937.500000	 65.065395 
935.000000	 65.625000 
932.500000	 66.289297 
930.000000	 66.771346 
927.500000	 67.858781 
925.000000	 68.475382 
922.500000	 70.175106 
920.000000	 72.577978 
917.500000	 75.470570 
915.000000	 77.957308 
912.500000	 80.556533 
910.000000	 82.773337 
907.500000	 84.698831 
905.000000	 86.513264 
902.500000	 86.142506 
900.000000	 86.006584 
897.500000	 84.409775 
895.000000	 81.424106 
892.500000	 77.818843 
890.000000	 73.558734 
887.500000	 69.606832 
885.000000	 64.000000 
882.500000	 59.513435 
880.000000	 56.057689 
877.500000	 52.900589 
875.000000	 50.432338 
872.500000	 48.073498 
870.000000	 46.832274 
867.500000	 45.788482 
865.000000	 45.817808 
862.500000	 46.912620 
860.000000	 49.387854 
857.500000	 52.016467 
855.000000	 57.393110 
852.500000	 64.509891 
850.000000	 73.556333 
847.500000	 82.979379 
845.000000	 88.902568 
842.500000	 86.277314 
840.000000	 73.268049 
837.500000	 55.080183 
835.000000	 38.438227 
832.500000	 26.148052 
830.000000	 17.939274 
827.500000	 12.551596 
825.000000	 9.007440  
822.500000	 6.531094  
820.000000	 4.933025  
817.500000	 3.754150  
815.000000	 2.971801  
812.500000	 2.311894  
810.000000	 1.859980  
807.500000	 1.524313  
805.000000	 1.224524  
802.500000	 1.075178  
800.000000	 0.985027  
797.500000	 0.789132  
795.000000	 0.683967  
792.500000	 0.619195  
790.000000	 0.580396  
787.500000	 0.490375  
785.000000	 0.406011  
782.500000	 0.434022  
780.000000	 0.422570  
777.500000	 0.366413  
775.000000	 0.321516  
772.500000	 0.321416  
770.000000	 0.329893  
767.500000	 0.296342  
765.000000	 0.253885  
762.500000	 0.267907  
760.000000	 0.352858  
757.500000	 0.335911  
755.000000	 0.222981  
752.500000	 0.284996  
750.000000	 0.335636  
747.500000	 0.377986  
745.000000	 0.344564  
742.500000	 0.339203  
740.000000	 0.417854  
737.500000	 0.460451  
735.000000	 0.477549  
732.500000	 0.508690  
730.000000	 0.613306  
727.500000	 0.706214  
725.000000	 0.728792  
722.500000	 0.793987  
720.000000	 0.963657  
717.500000	 1.082226  
715.000000	 1.219132  
712.500000	 1.391993  
710.000000	 1.557905  
707.500000	 1.764506  
705.000000	 1.917583  
702.500000	 2.047916  
700.000000	 2.302715  
697.500000	 2.518585  
695.000000	 2.623840  
692.500000	 2.780763  
690.000000	 2.973209  
687.500000	 3.185650  
685.000000	 3.492386  
682.500000	 3.852795  
680.000000	 4.289597  
677.500000	 4.713881  
675.000000	 5.294017  
672.500000	 5.960471  
670.000000	 6.661757  
667.500000	 7.474941  
665.000000	 8.372501  
662.500000	 9.411364  
660.000000	 10.352447 
657.500000	 11.258221 
655.000000	 12.212399 
652.500000	 13.203432 
650.000000	 14.222524 
647.500000	 15.163376 
645.000000	 16.347135 
642.500000	 17.724065 
640.000000	 19.165580 
637.500000	 20.885322 
635.000000	 22.896453 
632.500000	 25.318466 
630.000000	 27.943636 
627.500000	 30.706229 
625.000000	 33.831155 
622.500000	 37.034410 
620.000000	 40.246633 
617.500000	 43.357912 
615.000000	 46.274031 
612.500000	 48.974962 
610.000000	 51.261695 
607.500000	 53.219261 
605.000000	 54.804936 
602.500000	 56.164888 
600.000000	 57.512556 
597.500000	 58.729662 
595.000000	 60.228658 
592.500000	 62.215288 
590.000000	 64.683012 
587.500000	 67.815569 
585.000000	 71.503620 
582.500000	 75.557195 
580.000000	 79.669923 
577.500000	 83.242843 
575.000000	 85.888838 
572.500000	 87.388821 
570.000000	 87.881546 
567.500000	 87.287315 
565.000000	 86.170667 
562.500000	 84.939347 
560.000000	 83.920686 
557.500000	 83.247356 
555.000000	 83.250584 
552.500000	 83.554883 
550.000000	 84.327441 
547.500000	 85.356030 
545.000000	 86.500614 
542.500000	 87.541808 
540.000000	 87.861619 
537.500000	 87.482463 
535.000000	 86.475797 
532.500000	 84.844310 
530.000000	 82.729621 
527.500000	 80.246169 
525.000000	 77.213702 
522.500000	 72.981802 
520.000000	 66.929719 
517.500000	 59.318026 
515.000000	 51.173535 
512.500000	 43.541396 
510.000000	 37.284067 
507.500000	 32.603352 
505.000000	 29.495733 
502.500000	 27.460619 
500.000000	 25.989911 
497.500000	 24.488407 
495.000000	 22.506709 
492.500000	 19.984017 
490.000000	 17.135422 
487.500000	 14.430871 
485.000000	 12.255174 
482.500000	 10.582894 
480.000000	 9.264578  
477.500000	 8.163550  
475.000000	 7.402238  
472.500000	 6.869633  
470.000000	 6.562847  
467.500000	 6.662600  
465.000000	 7.178963  
462.500000	 7.983378  
460.000000	 8.378126  
457.500000	 7.562818  
455.000000	 5.860294  
452.500000	 4.214107  
450.000000	 3.115702  
447.500000	 2.389909  
445.000000	 2.000110  
442.500000	 1.885796  
440.000000	 1.728353  
437.500000	 1.565062  
435.000000	 1.487309  
432.500000	 1.412130  
430.000000	 1.247152  
427.500000	 1.024601  
425.000000	 0.854677  
422.500000	 0.746620  
420.000000	 0.582766  
417.500000	 0.371747  
415.000000	 0.266222  
412.500000	 0.238379  
410.000000	 0.213675  
407.500000	 0.119331  
405.000000	 0.091453  
402.500000	 0.146818  
400.000000	 0.246455  
397.500000	 0.371047  
395.000000	 0.511912  
392.500000	 0.472898  
390.000000	 0.204583  
387.500000	 0.016600  
385.000000	 -0.008295 
382.500000	 0.046975  
380.000000	 0.044196  
377.500000	 0.011041  
375.000000	 0.027593  
372.500000	 0.016582  
370.000000	 0.016575  
367.500000	 0.041460  
365.000000	 0.027645  
362.500000	 0.002768  
360.000000	 -0.024889 
357.500000	 -0.005526 
355.000000	 0.030378  
352.500000	 0.000000  
350.000000	 -0.055253 

