PE UV                   SPECTRUM    ASCII       PEDS        1.5         
  -1
Y151524A.SP
96/07/30
15:07:43.00
96/07/30
15:07:43.00
FINN POULSEN
Y-FILTER NO.15150Y24. PRODUKTIONSUGE 19/96. MRK.A
350.000000
1









4444

SCAN
1
1


0.0

2.00
MANUAL



UV/VIS




































#HDR
-1
-1
#GR
NM
%T
0.00002384185791015625
0.0
1100.000000
2.500000
301
8
92.528326
-0.055266
#DATA
1100.000000	72.421457 
1097.500000	71.805295 
1095.000000	72.000643 
1092.500000	70.263821 
1090.000000	69.868733 
1087.500000	71.110322 
1085.000000	71.744742 
1082.500000	73.024426 
1080.000000	73.246569 
1077.500000	72.892232 
1075.000000	73.945490 
1072.500000	74.369106 
1070.000000	73.769962 
1067.500000	74.575034 
1065.000000	77.005127 
1062.500000	78.774298 
1060.000000	78.089841 
1057.500000	77.561146 
1055.000000	78.952491 
1052.500000	81.481175 
1050.000000	82.282793 
1047.500000	82.683039 
1045.000000	82.819466 
1042.500000	84.374069 
1040.000000	86.161080 
1037.500000	86.735830 
1035.000000	86.725592 
1032.500000	88.035209 
1030.000000	89.455931 
1027.500000	89.598198 
1025.000000	89.005530 
1022.500000	90.212823 
1020.000000	91.634908 
1017.500000	91.102315 
1015.000000	90.985443 
1012.500000	92.233434 
1010.000000	92.528326 
1007.500000	91.537216 
1005.000000	90.503478 
1002.500000	91.440224 
1000.000000	91.737420 
997.500000	 91.532597 
995.000000	 91.802069 
992.500000	 90.443843 
990.000000	 89.018427 
987.500000	 89.658075 
985.000000	 88.582042 
982.500000	 86.888828 
980.000000	 85.779866 
977.500000	 85.738970 
975.000000	 84.929030 
972.500000	 83.661172 
970.000000	 80.873192 
967.500000	 78.276160 
965.000000	 76.776429 
962.500000	 75.921070 
960.000000	 74.451825 
957.500000	 72.942609 
955.000000	 71.348678 
952.500000	 69.639494 
950.000000	 68.611642 
947.500000	 67.502696 
945.000000	 66.353080 
942.500000	 65.426076 
940.000000	 65.061939 
937.500000	 64.902921 
935.000000	 65.505642 
932.500000	 65.947222 
930.000000	 66.546645 
927.500000	 67.435018 
925.000000	 68.264605 
922.500000	 69.801618 
920.000000	 72.030568 
917.500000	 74.634000 
915.000000	 77.200756 
912.500000	 79.757227 
910.000000	 82.447126 
907.500000	 84.495430 
905.000000	 85.904168 
902.500000	 86.983346 
900.000000	 86.681359 
897.500000	 85.301658 
895.000000	 82.598179 
892.500000	 79.362448 
890.000000	 75.390117 
887.500000	 71.355748 
885.000000	 65.995915 
882.500000	 61.258896 
880.000000	 57.223412 
877.500000	 53.476919 
875.000000	 50.610678 
872.500000	 48.583454 
870.000000	 47.276348 
867.500000	 45.844994 
865.000000	 45.647713 
862.500000	 46.287905 
860.000000	 47.977081 
857.500000	 50.322074 
855.000000	 54.914235 
852.500000	 61.242504 
850.000000	 69.727081 
847.500000	 79.485599 
845.000000	 87.383177 
842.500000	 88.841201 
840.000000	 79.356884 
837.500000	 62.240663 
835.000000	 44.409214 
832.500000	 30.360856 
830.000000	 20.612876 
827.500000	 14.314997 
825.000000	 10.138986 
822.500000	 7.332714  
820.000000	 5.383273  
817.500000	 4.117183  
815.000000	 3.275735  
812.500000	 2.511826  
810.000000	 2.000675  
807.500000	 1.648058  
805.000000	 1.314604  
802.500000	 1.092065  
800.000000	 0.999099  
797.500000	 0.873682  
795.000000	 0.731817  
792.500000	 0.627638  
790.000000	 0.583213  
787.500000	 0.518558  
785.000000	 0.434206  
782.500000	 0.414294  
780.000000	 0.442290  
777.500000	 0.400236  
775.000000	 0.321516  
772.500000	 0.318597  
770.000000	 0.355269  
767.500000	 0.335854  
765.000000	 0.253885  
762.500000	 0.248166  
760.000000	 0.333098  
757.500000	 0.318974  
755.000000	 0.270964  
752.500000	 0.245492  
750.000000	 0.307431  
747.500000	 0.377986  
745.000000	 0.333267  
742.500000	 0.319416  
740.000000	 0.398091  
737.500000	 0.457627  
735.000000	 0.486026  
732.500000	 0.494559  
730.000000	 0.585043  
727.500000	 0.689265  
725.000000	 0.782463  
722.500000	 0.808115  
720.000000	 0.924094  
717.500000	 1.070923  
715.000000	 1.196503  
712.500000	 1.321261  
710.000000	 1.526803  
707.500000	 1.747539  
705.000000	 1.920411  
702.500000	 2.053573  
700.000000	 2.251857  
697.500000	 2.490318  
695.000000	 2.652114  
692.500000	 2.820367  
690.000000	 2.978867  
687.500000	 3.211112  
685.000000	 3.478236  
682.500000	 3.787685  
680.000000	 4.196160  
677.500000	 4.626062  
675.000000	 5.135395  
672.500000	 5.759429  
670.000000	 6.471987  
667.500000	 7.194631  
665.000000	 8.027068  
662.500000	 9.003652  
660.000000	 9.921804  
657.500000	 10.810274 
655.000000	 11.679700 
652.500000	 12.622844 
650.000000	 13.624248 
647.500000	 14.579078 
645.000000	 15.680657 
642.500000	 16.984500 
640.000000	 18.482512 
637.500000	 20.142354 
635.000000	 22.065248 
632.500000	 24.387891 
630.000000	 27.044881 
627.500000	 29.830527 
625.000000	 32.912970 
622.500000	 36.208901 
620.000000	 39.492558 
617.500000	 42.719795 
615.000000	 45.760789 
612.500000	 48.507102 
610.000000	 50.995180 
607.500000	 53.125620 
605.000000	 54.773726 
602.500000	 56.284044 
600.000000	 57.731051 
597.500000	 58.976688 
595.000000	 60.322278 
592.500000	 62.161395 
590.000000	 64.648958 
587.500000	 67.744591 
585.000000	 71.188414 
582.500000	 75.040458 
580.000000	 79.150096 
577.500000	 82.856249 
575.000000	 85.664355 
572.500000	 87.400187 
570.000000	 88.222911 
567.500000	 87.918966 
565.000000	 86.842629 
562.500000	 85.665470 
560.000000	 84.641463 
557.500000	 83.880069 
555.000000	 83.744221 
552.500000	 83.959949 
550.000000	 84.698626 
547.500000	 85.650224 
545.000000	 86.711988 
542.500000	 87.716188 
540.000000	 88.144905 
537.500000	 88.000687 
535.000000	 87.229530 
532.500000	 85.782752 
530.000000	 83.803099 
527.500000	 81.250358 
525.000000	 78.076537 
522.500000	 73.847256 
520.000000	 67.824669 
517.500000	 60.337853 
515.000000	 52.324394 
512.500000	 44.810603 
510.000000	 38.587335 
507.500000	 33.835022 
505.000000	 30.597790 
502.500000	 28.462791 
500.000000	 26.865914 
497.500000	 25.209535 
495.000000	 23.018785 
492.500000	 20.333985 
490.000000	 17.379027 
487.500000	 14.583564 
485.000000	 12.374805 
482.500000	 10.708218 
480.000000	 9.417965  
477.500000	 8.392408  
475.000000	 7.617160  
472.500000	 7.103825  
470.000000	 6.782536  
467.500000	 6.820639  
465.000000	 7.245255  
462.500000	 7.999889  
460.000000	 8.378126  
457.500000	 7.647670  
455.000000	 6.054634  
452.500000	 4.436335  
450.000000	 3.322314  
447.500000	 2.572471  
445.000000	 2.069462  
442.500000	 1.933011  
440.000000	 1.786706  
437.500000	 1.612320  
435.000000	 1.434488  
432.500000	 1.345416  
430.000000	 1.261041  
427.500000	 1.069028  
425.000000	 0.899075  
422.500000	 0.760498  
420.000000	 0.607742  
417.500000	 0.441103  
415.000000	 0.271769  
412.500000	 0.235607  
410.000000	 0.210900  
407.500000	 0.111006  
405.000000	 0.074825  
402.500000	 0.102495  
400.000000	 0.249224  
397.500000	 0.351664  
395.000000	 0.492542  
392.500000	 0.495022  
390.000000	 0.223936  
387.500000	 0.055335  
385.000000	 -0.047008 
382.500000	 -0.022106 
380.000000	 0.024860  
377.500000	 -0.024843 
375.000000	 0.008277  
372.500000	 0.063565  
370.000000	 0.019337  
367.500000	 0.002764  
365.000000	 0.011058  
362.500000	 -0.005536 
360.000000	 -0.022123 
357.500000	 -0.055266 
355.000000	 0.008285  
352.500000	 0.033136  
350.000000	 -0.024863 

