PE UV                   SPECTRUM    ASCII       PEDS        1.5         
  -1
Z151624F.SP
96/07/31
13:46:54.00
96/07/31
13:46:54.00
FINN POULSEN
Z-FILTER NO.15160Y24. PRODUKTIONSUGE 26/96. MRK.F
350.000000
1









4444

SCAN
1
1


0.0

2.00
MANUAL



UV/VIS




































#HDR
-1
-1
#GR
NM
%T
0.00002384185791015625
0.0
1100.000000
2.500000
301
8
84.996426
-0.036464
#DATA
1100.000000	46.091340 
1097.500000	44.468866 
1095.000000	43.294136 
1092.500000	42.196423 
1090.000000	41.170167 
1087.500000	39.170853 
1085.000000	39.793149 
1082.500000	40.448296 
1080.000000	38.873585 
1077.500000	36.146156 
1075.000000	34.603666 
1072.500000	33.460563 
1070.000000	34.555591 
1067.500000	33.626373 
1065.000000	33.008457 
1062.500000	32.274535 
1060.000000	31.525787 
1057.500000	30.456375 
1055.000000	29.686910 
1052.500000	28.514894 
1050.000000	29.079241 
1047.500000	29.122649 
1045.000000	27.999463 
1042.500000	27.483746 
1040.000000	26.812335 
1037.500000	26.339813 
1035.000000	26.117722 
1032.500000	25.260528 
1030.000000	24.091350 
1027.500000	25.601055 
1025.000000	26.099359 
1022.500000	23.868190 
1020.000000	23.260314 
1017.500000	24.324106 
1015.000000	25.404669 
1012.500000	25.332586 
1010.000000	23.179605 
1007.500000	23.195187 
1005.000000	25.504909 
1002.500000	25.408898 
1000.000000	23.862603 
997.500000	 23.750938 
995.000000	 24.356784 
992.500000	 24.697865 
990.000000	 24.501032 
987.500000	 24.366009 
985.000000	 24.816359 
982.500000	 25.713903 
980.000000	 26.602760 
977.500000	 27.078044 
975.000000	 26.826977 
972.500000	 26.947603 
970.000000	 27.153145 
967.500000	 27.738450 
965.000000	 28.273446 
962.500000	 28.808281 
960.000000	 29.335684 
957.500000	 29.678694 
955.000000	 30.123627 
952.500000	 30.483291 
950.000000	 30.630080 
947.500000	 30.856150 
945.000000	 31.223662 
942.500000	 31.861778 
940.000000	 31.976076 
937.500000	 31.794513 
935.000000	 31.700311 
932.500000	 31.267718 
930.000000	 31.166332 
927.500000	 31.179775 
925.000000	 31.021127 
922.500000	 31.042205 
920.000000	 30.796143 
917.500000	 30.536136 
915.000000	 29.966954 
912.500000	 29.903856 
910.000000	 29.393556 
907.500000	 29.108145 
905.000000	 28.628685 
902.500000	 27.786757 
900.000000	 27.555185 
897.500000	 27.211961 
895.000000	 27.090148 
892.500000	 26.059008 
890.000000	 25.506574 
887.500000	 24.722304 
885.000000	 24.007723 
882.500000	 23.600791 
880.000000	 23.119383 
877.500000	 21.846647 
875.000000	 20.775882 
872.500000	 19.539182 
870.000000	 18.507733 
867.500000	 17.290505 
865.000000	 15.900946 
862.500000	 14.922351 
860.000000	 14.017039 
857.500000	 12.568381 
855.000000	 11.602271 
852.500000	 10.643200 
850.000000	 9.568620  
847.500000	 8.775725  
845.000000	 7.938092  
842.500000	 7.121439  
840.000000	 6.449730  
837.500000	 5.689271  
835.000000	 5.151540  
832.500000	 4.593029  
830.000000	 4.115272  
827.500000	 3.670491  
825.000000	 3.279692  
822.500000	 2.917061  
820.000000	 2.659900  
817.500000	 2.431000  
815.000000	 2.160820  
812.500000	 1.919053  
810.000000	 1.771834  
807.500000	 1.603652  
805.000000	 1.452345  
802.500000	 1.324484  
800.000000	 1.247980  
797.500000	 1.089865  
795.000000	 0.998939  
792.500000	 0.964728  
790.000000	 0.831125  
787.500000	 0.833519  
785.000000	 0.728175  
782.500000	 0.751984  
780.000000	 0.713429  
777.500000	 0.604642  
775.000000	 0.557211  
772.500000	 0.546158  
770.000000	 0.521297  
767.500000	 0.479549  
765.000000	 0.407502  
762.500000	 0.426766  
760.000000	 0.370773  
757.500000	 0.373998  
755.000000	 0.382393  
752.500000	 0.332059  
750.000000	 0.343144  
747.500000	 0.320745  
745.000000	 0.287500  
742.500000	 0.307048  
740.000000	 0.290291  
737.500000	 0.259457  
735.000000	 0.231655  
732.500000	 0.248429  
730.000000	 0.265074  
727.500000	 0.198130  
725.000000	 0.231494  
722.500000	 0.175771  
720.000000	 0.195230  
717.500000	 0.200836  
715.000000	 0.100468  
712.500000	 0.139458  
710.000000	 0.161740  
707.500000	 0.136795  
705.000000	 0.097727  
702.500000	 0.069826  
700.000000	 0.147895  
697.500000	 0.117259  
695.000000	 0.047491  
692.500000	 0.114365  
690.000000	 0.033460  
687.500000	 0.086437  
685.000000	 0.133928  
682.500000	 0.158960  
680.000000	 0.120034  
677.500000	 0.167364  
675.000000	 0.128337  
672.500000	 0.223164  
670.000000	 0.237211  
667.500000	 0.198418  
665.000000	 0.254317  
662.500000	 0.187218  
660.000000	 0.181660  
657.500000	 0.150905  
655.000000	 0.097822  
652.500000	 0.081078  
650.000000	 0.044712  
647.500000	 0.053142  
645.000000	 0.044764  
642.500000	 0.027975  
640.000000	 0.058708  
637.500000	 -0.016793 
635.000000	 0.002799  
632.500000	 0.036369  
630.000000	 -0.008396 
627.500000	 0.030811  
625.000000	 -0.016803 
622.500000	 0.016808  
620.000000	 0.042006  
617.500000	 0.002801  
615.000000	 0.044809  
612.500000	 0.028015  
610.000000	 -0.008405 
607.500000	 0.005606  
605.000000	 0.014020  
602.500000	 0.047701  
600.000000	 -0.002805 
597.500000	 -0.036464 
595.000000	 0.042079  
592.500000	 0.016825  
590.000000	 0.019634  
587.500000	 0.002806  
585.000000	 -0.019651 
582.500000	 0.053342  
580.000000	 0.058960  
577.500000	 0.030897  
575.000000	 0.036538  
572.500000	 0.030921  
570.000000	 0.073072  
567.500000	 0.053426  
565.000000	 0.033782  
562.500000	 0.045043  
560.000000	 0.030985  
557.500000	 0.039455  
555.000000	 0.070472  
552.500000	 0.081809  
550.000000	 0.124100  
547.500000	 0.177810  
545.000000	 0.177860  
542.500000	 0.189458  
540.000000	 0.254654  
537.500000	 0.334041  
535.000000	 0.441976  
532.500000	 0.586551  
530.000000	 0.697892  
527.500000	 0.984564  
525.000000	 1.321460  
522.500000	 1.734497  
520.000000	 2.213490  
517.500000	 2.798680  
515.000000	 3.502774  
512.500000	 4.176172  
510.000000	 4.935172  
507.500000	 5.752647  
505.000000	 6.638734  
502.500000	 7.697059  
500.000000	 8.835201  
497.500000	 10.193037 
495.000000	 11.687079 
492.500000	 13.280078 
490.000000	 15.056413 
487.500000	 16.786116 
485.000000	 18.560303 
482.500000	 20.447469 
480.000000	 22.697676 
477.500000	 25.573689 
475.000000	 29.158734 
472.500000	 33.921190 
470.000000	 40.065505 
467.500000	 47.641392 
465.000000	 56.229508 
462.500000	 64.904396 
460.000000	 72.519623 
457.500000	 78.155682 
455.000000	 81.507183 
452.500000	 83.222478 
450.000000	 83.948027 
447.500000	 84.352178 
445.000000	 84.728590 
442.500000	 84.941448 
440.000000	 84.996426 
437.500000	 84.869488 
435.000000	 84.141514 
432.500000	 82.855335 
430.000000	 80.893682 
427.500000	 78.031199 
425.000000	 73.971510 
422.500000	 68.427126 
420.000000	 61.602133 
417.500000	 53.677784 
415.000000	 45.161379 
412.500000	 36.840225 
410.000000	 29.143422 
407.500000	 22.096122 
405.000000	 15.647323 
402.500000	 10.178654 
400.000000	 6.083712  
397.500000	 3.422553  
395.000000	 1.978269  
392.500000	 1.176277  
390.000000	 0.728886  
387.500000	 0.460248  
385.000000	 0.320337  
382.500000	 0.254766  
380.000000	 0.205473  
377.500000	 0.183180  
375.000000	 0.161114  
372.500000	 0.106802  
370.000000	 0.057543  
367.500000	 0.041102  
365.000000	 0.052017  
362.500000	 0.032838  
360.000000	 0.005475  
357.500000	 0.002737  
355.000000	 0.010940  
352.500000	 0.002735  
350.000000	 0.002737  

